return_to_homepage.thisRepN,return_to_homepage.thisTrialN,return_to_homepage.thisN,return_to_homepage.thisIndex,trials_1.thisRepN,trials_1.thisTrialN,trials_1.thisN,trials_1.thisIndex,repetition_1.thisRepN,repetition_1.thisTrialN,repetition_1.thisN,repetition_1.thisIndex,trials_2.thisRepN,trials_2.thisTrialN,trials_2.thisN,trials_2.thisIndex,repetition_2.thisRepN,repetition_2.thisTrialN,repetition_2.thisN,repetition_2.thisIndex,trials_3.thisRepN,trials_3.thisTrialN,trials_3.thisN,trials_3.thisIndex,repetition_3.thisRepN,repetition_3.thisTrialN,repetition_3.thisN,repetition_3.thisIndex,trials_4.thisRepN,trials_4.thisTrialN,trials_4.thisN,trials_4.thisIndex,repetition_4.thisRepN,repetition_4.thisTrialN,repetition_4.thisN,repetition_4.thisIndex,thisRow.t,notes,WelcomeScreen.started,welcome_message.started,caution_sign.started,WelcomeScreen.stopped,PickTest.started,button_t1.started,button_t2.started,button_t3.started,button_t4.started,text.started,PickTest.stopped,button_t1.numClicks,button_t1.timesOn,button_t1.timesOff,button_t2.numClicks,button_t2.timesOn,button_t2.timesOff,button_t3.numClicks,button_t3.timesOn,button_t3.timesOff,button_t4.numClicks,button_t4.timesOn,button_t4.timesOff,test_1.started,test_1.stopped,blank1s_t1.started,blank1s_t1.stopped,test_2.started,obj1_t2.started,obj2_t2.started,obj3_t2.started,test_2_mess.started,obj1_t2.stopped,obj2_t2.stopped,obj3_t2.stopped,test_2_mess.stopped,test_2.stopped,blank1s_t2.started,blank_screen_t2_mess.started,blank1s_t2.stopped,test_3.started,test_3.stopped,blank1s_t3.started,blank1s_t3.stopped,test_4.started,test_4.stopped,blank1s_t4.started,blank1s_t4.stopped,reset_buttons.started,reset_buttons.stopped,participant,session,date,expName,psychopyVersion,frameRate,expStart,
0,0,0,0,0,0,0,0,0,0,0,0,,,,,,,,,,,,,,,,,,,,,,,,,20.034848672999942,,0.015844071000174154,0.05505225300112215,0.05505225300112215,10.001210635000461,10.002735092000876,10.044356914000673,10.044356914000673,10.044356914000673,10.044356914000673,10.044356914000673,20.001713956000458,0,,,1,[3.89701827799945],[4.026455622999492],0,,,0,,,20.004124230001253,20.004164358000708,20.004173367000476,20.004189463999865,,,,,,,,,,,,,,,,,,,,,,,,559808\,001,2024-03-21_18h51.41.625,Test1,2023.2.3,None,2024-03-21 18h51.49.962923 -0300,
0,0,0,0,0,0,0,0,1,0,1,0,,,,,,,,,,,,,,,,,,,,,,,,,20.034848672999942,,,,,,,,,,,,,,,,,,,,,,,,,20.004361862000223,20.004386709000755,20.004393647001052,20.00440672300101,,,,,,,,,,,,,,,,,,,,,,,,559808\,001,2024-03-21_18h51.41.625,Test1,2023.2.3,None,2024-03-21 18h51.49.962923 -0300,
0,0,0,0,0,0,0,0,2,0,2,0,,,,,,,,,,,,,,,,,,,,,,,,,20.034848672999942,,,,,,,,,,,,,,,,,,,,,,,,,20.004562939000607,20.004586144001223,20.00459296400004,20.004605957999956,,,,,,,,,,,,,,,,,,,,,,,,559808\,001,2024-03-21_18h51.41.625,Test1,2023.2.3,None,2024-03-21 18h51.49.962923 -0300,
0,0,0,0,0,0,0,0,3,0,3,0,,,,,,,,,,,,,,,,,,,,,,,,,20.034848672999942,,,,,,,,,,,,,,,,,,,,,,,,,20.004758963999848,20.004782385,20.004789054000867,20.00480202700055,,,,,,,,,,,,,,,,,,,,,,,,559808\,001,2024-03-21_18h51.41.625,Test1,2023.2.3,None,2024-03-21 18h51.49.962923 -0300,
0,0,0,0,0,0,0,0,4,0,4,0,,,,,,,,,,,,,,,,,,,,,,,,,20.034848672999942,,,,,,,,,,,,,,,,,,,,,,,,,20.004954576999808,20.004976639000233,20.004983194001397,20.00499572300032,,,,,,,,,,,,,,,,,,,,,,,,559808\,001,2024-03-21_18h51.41.625,Test1,2023.2.3,None,2024-03-21 18h51.49.962923 -0300,
0,0,0,0,0,0,0,0,5,0,5,0,,,,,,,,,,,,,,,,,,,,,,,,,20.034848672999942,,,,,,,,,,,,,,,,,,,,,,,,,20.005149896000148,20.005173011000807,20.00517960400066,20.005192324000745,,,,,,,,,,,,,,,,,,,,,,,,559808\,001,2024-03-21_18h51.41.625,Test1,2023.2.3,None,2024-03-21 18h51.49.962923 -0300,
0,0,0,0,0,0,0,0,6,0,6,0,,,,,,,,,,,,,,,,,,,,,,,,,20.034848672999942,,,,,,,,,,,,,,,,,,,,,,,,,20.005344302000594,20.00536661100159,20.00537324400102,20.005385989001297,,,,,,,,,,,,,,,,,,,,,,,,559808\,001,2024-03-21_18h51.41.625,Test1,2023.2.3,None,2024-03-21 18h51.49.962923 -0300,
0,0,0,0,0,0,0,0,7,0,7,0,,,,,,,,,,,,,,,,,,,,,,,,,20.034848672999942,,,,,,,,,,,,,,,,,,,,,,,,,20.00553578400104,20.005558240000028,20.005564884000705,20.005577810999966,,,,,,,,,,,,,,,,,,,,,,,,559808\,001,2024-03-21_18h51.41.625,Test1,2023.2.3,None,2024-03-21 18h51.49.962923 -0300,
0,0,0,0,0,0,0,0,8,0,8,0,,,,,,,,,,,,,,,,,,,,,,,,,20.034848672999942,,,,,,,,,,,,,,,,,,,,,,,,,20.00572768300117,20.005750453001383,20.005757048000305,20.005769860999862,,,,,,,,,,,,,,,,,,,,,,,,559808\,001,2024-03-21_18h51.41.625,Test1,2023.2.3,None,2024-03-21 18h51.49.962923 -0300,
0,0,0,0,0,0,0,0,9,0,9,0,,,,,,,,,,,,,,,,,,,,,,,,,20.034848672999942,,,,,,,,,,,,,,,,,,,,,,,,,20.005920041001445,20.005941934001385,20.00594850700145,20.00596136400054,,,,,,,,,,,,,,,,,,,,,,,,559808\,001,2024-03-21_18h51.41.625,Test1,2023.2.3,None,2024-03-21 18h51.49.962923 -0300,
0,0,0,0,0,0,0,0,,,,,,,,,,,,,,,,,,,,,,,,,,,,,,,,,,,,,,,,,,,,,,,,,,,,,,,,,,,,,,,,,,,,,,,,,,,,,,,,,559808\,001,2024-03-21_18h51.41.625,Test1,2023.2.3,None,2024-03-21 18h51.49.962923 -0300,
0,0,0,0,1,0,1,0,0,0,0,0,,,,,,,,,,,,,,,,,,,,,,,,,20.034848672999942,,,,,,,,,,,,,,,,,,,,,,,,,20.006495171001006,20.00652205500046,20.00652913600061,20.006542843000716,,,,,,,,,,,,,,,,,,,,,,,,559808\,001,2024-03-21_18h51.41.625,Test1,2023.2.3,None,2024-03-21 18h51.49.962923 -0300,
0,0,0,0,1,0,1,0,1,0,1,0,,,,,,,,,,,,,,,,,,,,,,,,,20.034848672999942,,,,,,,,,,,,,,,,,,,,,,,,,20.00670206200084,20.006727074000082,20.00673391500095,20.006747471999915,,,,,,,,,,,,,,,,,,,,,,,,559808\,001,2024-03-21_18h51.41.625,Test1,2023.2.3,None,2024-03-21 18h51.49.962923 -0300,
0,0,0,0,1,0,1,0,2,0,2,0,,,,,,,,,,,,,,,,,,,,,,,,,20.034848672999942,,,,,,,,,,,,,,,,,,,,,,,,,20.00690186800057,20.006925161000254,20.006931919000635,20.006944812001166,,,,,,,,,,,,,,,,,,,,,,,,559808\,001,2024-03-21_18h51.41.625,Test1,2023.2.3,None,2024-03-21 18h51.49.962923 -0300,
0,0,0,0,1,0,1,0,3,0,3,0,,,,,,,,,,,,,,,,,,,,,,,,,20.034848672999942,,,,,,,,,,,,,,,,,,,,,,,,,20.00709870600076,20.00712214900159,20.007128856001145,20.00714180900104,,,,,,,,,,,,,,,,,,,,,,,,559808\,001,2024-03-21_18h51.41.625,Test1,2023.2.3,None,2024-03-21 18h51.49.962923 -0300,
0,0,0,0,1,0,1,0,4,0,4,0,,,,,,,,,,,,,,,,,,,,,,,,,20.034848672999942,,,,,,,,,,,,,,,,,,,,,,,,,20.007293250000657,20.007316001001527,20.00732269600121,20.007335398000578,,,,,,,,,,,,,,,,,,,,,,,,559808\,001,2024-03-21_18h51.41.625,Test1,2023.2.3,None,2024-03-21 18h51.49.962923 -0300,
0,0,0,0,1,0,1,0,5,0,5,0,,,,,,,,,,,,,,,,,,,,,,,,,20.034848672999942,,,,,,,,,,,,,,,,,,,,,,,,,20.0074871350007,20.007509798000683,20.007516449000832,20.007529200000135,,,,,,,,,,,,,,,,,,,,,,,,559808\,001,2024-03-21_18h51.41.625,Test1,2023.2.3,None,2024-03-21 18h51.49.962923 -0300,
0,0,0,0,1,0,1,0,6,0,6,0,,,,,,,,,,,,,,,,,,,,,,,,,20.034848672999942,,,,,,,,,,,,,,,,,,,,,,,,,20.007679850001296,20.007702546001383,20.00770906100115,20.007722000000285,,,,,,,,,,,,,,,,,,,,,,,,559808\,001,2024-03-21_18h51.41.625,Test1,2023.2.3,None,2024-03-21 18h51.49.962923 -0300,
0,0,0,0,1,0,1,0,7,0,7,0,,,,,,,,,,,,,,,,,,,,,,,,,20.034848672999942,,,,,,,,,,,,,,,,,,,,,,,,,20.00787289300024,20.007895134000137,20.007901603999926,20.00791443200069,,,,,,,,,,,,,,,,,,,,,,,,559808\,001,2024-03-21_18h51.41.625,Test1,2023.2.3,None,2024-03-21 18h51.49.962923 -0300,
0,0,0,0,1,0,1,0,8,0,8,0,,,,,,,,,,,,,,,,,,,,,,,,,20.034848672999942,,,,,,,,,,,,,,,,,,,,,,,,,20.008066643000348,20.008089179000308,20.00809574900086,20.008108426000035,,,,,,,,,,,,,,,,,,,,,,,,559808\,001,2024-03-21_18h51.41.625,Test1,2023.2.3,None,2024-03-21 18h51.49.962923 -0300,
0,0,0,0,1,0,1,0,9,0,9,0,,,,,,,,,,,,,,,,,,,,,,,,,20.034848672999942,,,,,,,,,,,,,,,,,,,,,,,,,20.00825892100147,20.008282324000902,20.008288879000247,20.008301584000947,,,,,,,,,,,,,,,,,,,,,,,,559808\,001,2024-03-21_18h51.41.625,Test1,2023.2.3,None,2024-03-21 18h51.49.962923 -0300,
0,0,0,0,1,0,1,0,,,,,,,,,,,,,,,,,,,,,,,,,,,,,,,,,,,,,,,,,,,,,,,,,,,,,,,,,,,,,,,,,,,,,,,,,,,,,,,,,559808\,001,2024-03-21_18h51.41.625,Test1,2023.2.3,None,2024-03-21 18h51.49.962923 -0300,
0,0,0,0,2,0,2,0,0,0,0,0,,,,,,,,,,,,,,,,,,,,,,,,,20.034848672999942,,,,,,,,,,,,,,,,,,,,,,,,,20.008828029000142,20.008852433000357,20.00885925000148,20.008872022001015,,,,,,,,,,,,,,,,,,,,,,,,559808\,001,2024-03-21_18h51.41.625,Test1,2023.2.3,None,2024-03-21 18h51.49.962923 -0300,
0,0,0,0,2,0,2,0,1,0,1,0,,,,,,,,,,,,,,,,,,,,,,,,,20.034848672999942,,,,,,,,,,,,,,,,,,,,,,,,,20.009017403001053,20.009039649001352,20.009045909000633,20.00905803400019,,,,,,,,,,,,,,,,,,,,,,,,559808\,001,2024-03-21_18h51.41.625,Test1,2023.2.3,None,2024-03-21 18h51.49.962923 -0300,
0,0,0,0,2,0,2,0,2,0,2,0,,,,,,,,,,,,,,,,,,,,,,,,,20.034848672999942,,,,,,,,,,,,,,,,,,,,,,,,,20.009199664000334,20.009220824000295,20.009227037000528,20.009238906000974,,,,,,,,,,,,,,,,,,,,,,,,559808\,001,2024-03-21_18h51.41.625,Test1,2023.2.3,None,2024-03-21 18h51.49.962923 -0300,
0,0,0,0,2,0,2,0,3,0,3,0,,,,,,,,,,,,,,,,,,,,,,,,,20.034848672999942,,,,,,,,,,,,,,,,,,,,,,,,,20.009380794001117,20.009402006000528,20.00940830500076,20.009421237000424,,,,,,,,,,,,,,,,,,,,,,,,559808\,001,2024-03-21_18h51.41.625,Test1,2023.2.3,None,2024-03-21 18h51.49.962923 -0300,
0,0,0,0,2,0,2,0,4,0,4,0,,,,,,,,,,,,,,,,,,,,,,,,,20.034848672999942,,,,,,,,,,,,,,,,,,,,,,,,,20.009561028000462,20.009582415001205,20.009588681999958,20.00960063400089,,,,,,,,,,,,,,,,,,,,,,,,559808\,001,2024-03-21_18h51.41.625,Test1,2023.2.3,None,2024-03-21 18h51.49.962923 -0300,
0,0,0,0,2,0,2,0,5,0,5,0,,,,,,,,,,,,,,,,,,,,,,,,,20.034848672999942,,,,,,,,,,,,,,,,,,,,,,,,,20.009739675000674,20.009760259999894,20.00976632899983,20.00977830500051,,,,,,,,,,,,,,,,,,,,,,,,559808\,001,2024-03-21_18h51.41.625,Test1,2023.2.3,None,2024-03-21 18h51.49.962923 -0300,
0,0,0,0,2,0,2,0,6,0,6,0,,,,,,,,,,,,,,,,,,,,,,,,,20.034848672999942,,,,,,,,,,,,,,,,,,,,,,,,,20.009916591001456,20.009942039001544,20.009948461000022,20.009963100001187,,,,,,,,,,,,,,,,,,,,,,,,559808\,001,2024-03-21_18h51.41.625,Test1,2023.2.3,None,2024-03-21 18h51.49.962923 -0300,
0,0,0,0,2,0,2,0,7,0,7,0,,,,,,,,,,,,,,,,,,,,,,,,,20.034848672999942,,,,,,,,,,,,,,,,,,,,,,,,,20.010103223999977,20.010123729000043,20.0101299880007,20.01014160000159,,,,,,,,,,,,,,,,,,,,,,,,559808\,001,2024-03-21_18h51.41.625,Test1,2023.2.3,None,2024-03-21 18h51.49.962923 -0300,
0,0,0,0,2,0,2,0,8,0,8,0,,,,,,,,,,,,,,,,,,,,,,,,,20.034848672999942,,,,,,,,,,,,,,,,,,,,,,,,,20.010292561000824,20.01031250500091,20.010318388000087,20.010329749000448,,,,,,,,,,,,,,,,,,,,,,,,559808\,001,2024-03-21_18h51.41.625,Test1,2023.2.3,None,2024-03-21 18h51.49.962923 -0300,
0,0,0,0,2,0,2,0,9,0,9,0,,,,,,,,,,,,,,,,,,,,,,,,,20.034848672999942,,,,,,,,,,,,,,,,,,,,,,,,,20.010464760000104,20.01048546600032,20.01049149299979,20.01050298700102,,,,,,,,,,,,,,,,,,,,,,,,559808\,001,2024-03-21_18h51.41.625,Test1,2023.2.3,None,2024-03-21 18h51.49.962923 -0300,
0,0,0,0,2,0,2,0,,,,,,,,,,,,,,,,,,,,,,,,,,,,,,,,,,,,,,,,,,,,,,,,,,,,,,,,,,,,,,,,,,,,,,,,,,,,,,,,,559808\,001,2024-03-21_18h51.41.625,Test1,2023.2.3,None,2024-03-21 18h51.49.962923 -0300,
0,0,0,0,3,0,3,0,0,0,0,0,,,,,,,,,,,,,,,,,,,,,,,,,20.034848672999942,,,,,,,,,,,,,,,,,,,,,,,,,20.01099197900112,20.01101594800093,20.011022421000234,20.01103470000089,,,,,,,,,,,,,,,,,,,,,,,,559808\,001,2024-03-21_18h51.41.625,Test1,2023.2.3,None,2024-03-21 18h51.49.962923 -0300,
0,0,0,0,3,0,3,0,1,0,1,0,,,,,,,,,,,,,,,,,,,,,,,,,20.034848672999942,,,,,,,,,,,,,,,,,,,,,,,,,20.011178446000486,20.01119982199998,20.01120589400125,20.011217855000723,,,,,,,,,,,,,,,,,,,,,,,,559808\,001,2024-03-21_18h51.41.625,Test1,2023.2.3,None,2024-03-21 18h51.49.962923 -0300,
0,0,0,0,3,0,3,0,2,0,2,0,,,,,,,,,,,,,,,,,,,,,,,,,20.034848672999942,,,,,,,,,,,,,,,,,,,,,,,,,20.011371952001355,20.011393271000998,20.011399405000702,20.011411119001423,,,,,,,,,,,,,,,,,,,,,,,,559808\,001,2024-03-21_18h51.41.625,Test1,2023.2.3,None,2024-03-21 18h51.49.962923 -0300,
0,0,0,0,3,0,3,0,3,0,3,0,,,,,,,,,,,,,,,,,,,,,,,,,20.034848672999942,,,,,,,,,,,,,,,,,,,,,,,,,20.011554095000974,20.011575219001315,20.011584162000872,20.01159635500153,,,,,,,,,,,,,,,,,,,,,,,,559808\,001,2024-03-21_18h51.41.625,Test1,2023.2.3,None,2024-03-21 18h51.49.962923 -0300,
0,0,0,0,3,0,3,0,4,0,4,0,,,,,,,,,,,,,,,,,,,,,,,,,20.034848672999942,,,,,,,,,,,,,,,,,,,,,,,,,20.01173265200123,20.011752735999835,20.011758708000343,20.01177041400115,,,,,,,,,,,,,,,,,,,,,,,,559808\,001,2024-03-21_18h51.41.625,Test1,2023.2.3,None,2024-03-21 18h51.49.962923 -0300,
0,0,0,0,3,0,3,0,5,0,5,0,,,,,,,,,,,,,,,,,,,,,,,,,20.034848672999942,,,,,,,,,,,,,,,,,,,,,,,,,20.011904327000593,20.01192907800032,20.011935420001464,20.011949546000324,,,,,,,,,,,,,,,,,,,,,,,,559808\,001,2024-03-21_18h51.41.625,Test1,2023.2.3,None,2024-03-21 18h51.49.962923 -0300,
0,0,0,0,3,0,3,0,6,0,6,0,,,,,,,,,,,,,,,,,,,,,,,,,20.034848672999942,,,,,,,,,,,,,,,,,,,,,,,,,20.012085885000488,20.012109477000195,20.012115411000195,20.012127007001254,,,,,,,,,,,,,,,,,,,,,,,,559808\,001,2024-03-21_18h51.41.625,Test1,2023.2.3,None,2024-03-21 18h51.49.962923 -0300,
0,0,0,0,3,0,3,0,7,0,7,0,,,,,,,,,,,,,,,,,,,,,,,,,20.034848672999942,,,,,,,,,,,,,,,,,,,,,,,,,20.012260905001312,20.0122812790014,20.012287269000808,20.012331836000158,,,,,,,,,,,,,,,,,,,,,,,,559808\,001,2024-03-21_18h51.41.625,Test1,2023.2.3,None,2024-03-21 18h51.49.962923 -0300,
0,0,0,0,3,0,3,0,8,0,8,0,,,,,,,,,,,,,,,,,,,,,,,,,20.034848672999942,,,,,,,,,,,,,,,,,,,,,,,,,20.01246893500138,20.012489727001594,20.012495679000494,20.012507121000453,,,,,,,,,,,,,,,,,,,,,,,,559808\,001,2024-03-21_18h51.41.625,Test1,2023.2.3,None,2024-03-21 18h51.49.962923 -0300,
0,0,0,0,3,0,3,0,9,0,9,0,,,,,,,,,,,,,,,,,,,,,,,,,20.034848672999942,,,,,,,,,,,,,,,,,,,,,,,,,20.012653454999963,20.01267412300149,20.012680133000686,20.012691849000475,,,,,,,,,,,,,,,,,,,,,,,,559808\,001,2024-03-21_18h51.41.625,Test1,2023.2.3,None,2024-03-21 18h51.49.962923 -0300,
0,0,0,0,3,0,3,0,,,,,,,,,,,,,,,,,,,,,,,,,,,,,,,,,,,,,,,,,,,,,,,,,,,,,,,,,,,,,,,,,,,,,,,,,,,,,,,,,559808\,001,2024-03-21_18h51.41.625,Test1,2023.2.3,None,2024-03-21 18h51.49.962923 -0300,
0,0,0,0,4,0,4,0,0,0,0,0,,,,,,,,,,,,,,,,,,,,,,,,,20.034848672999942,,,,,,,,,,,,,,,,,,,,,,,,,20.013169163001294,20.01319312600026,20.01319966900155,20.01321180100058,,,,,,,,,,,,,,,,,,,,,,,,559808\,001,2024-03-21_18h51.41.625,Test1,2023.2.3,None,2024-03-21 18h51.49.962923 -0300,
0,0,0,0,4,0,4,0,1,0,1,0,,,,,,,,,,,,,,,,,,,,,,,,,20.034848672999942,,,,,,,,,,,,,,,,,,,,,,,,,20.01335238000138,20.013373329000387,20.013379464000536,20.0133922290006,,,,,,,,,,,,,,,,,,,,,,,,559808\,001,2024-03-21_18h51.41.625,Test1,2023.2.3,None,2024-03-21 18h51.49.962923 -0300,
0,0,0,0,4,0,4,0,2,0,2,0,,,,,,,,,,,,,,,,,,,,,,,,,20.034848672999942,,,,,,,,,,,,,,,,,,,,,,,,,20.01352833400051,20.013549388000683,20.013555424000515,20.013571023000623,,,,,,,,,,,,,,,,,,,,,,,,559808\,001,2024-03-21_18h51.41.625,Test1,2023.2.3,None,2024-03-21 18h51.49.962923 -0300,
0,0,0,0,4,0,4,0,3,0,3,0,,,,,,,,,,,,,,,,,,,,,,,,,20.034848672999942,,,,,,,,,,,,,,,,,,,,,,,,,20.01371193900013,20.013732108000113,20.01373834000151,20.013749985000686,,,,,,,,,,,,,,,,,,,,,,,,559808\,001,2024-03-21_18h51.41.625,Test1,2023.2.3,None,2024-03-21 18h51.49.962923 -0300,
0,0,0,0,4,0,4,0,4,0,4,0,,,,,,,,,,,,,,,,,,,,,,,,,20.034848672999942,,,,,,,,,,,,,,,,,,,,,,,,,20.013885418000427,20.013909398001488,20.013915626001108,20.013927244001025,,,,,,,,,,,,,,,,,,,,,,,,559808\,001,2024-03-21_18h51.41.625,Test1,2023.2.3,None,2024-03-21 18h51.49.962923 -0300,
0,0,0,0,4,0,4,0,5,0,5,0,,,,,,,,,,,,,,,,,,,,,,,,,20.034848672999942,,,,,,,,,,,,,,,,,,,,,,,,,20.01406114800011,20.014081384000747,20.01408741400155,20.014099113001066,,,,,,,,,,,,,,,,,,,,,,,,559808\,001,2024-03-21_18h51.41.625,Test1,2023.2.3,None,2024-03-21 18h51.49.962923 -0300,
0,0,0,0,4,0,4,0,6,0,6,0,,,,,,,,,,,,,,,,,,,,,,,,,20.034848672999942,,,,,,,,,,,,,,,,,,,,,,,,,20.014232323001124,20.01425990900134,20.014266269001382,20.014277727999797,,,,,,,,,,,,,,,,,,,,,,,,559808\,001,2024-03-21_18h51.41.625,Test1,2023.2.3,None,2024-03-21 18h51.49.962923 -0300,
0,0,0,0,4,0,4,0,7,0,7,0,,,,,,,,,,,,,,,,,,,,,,,,,20.034848672999942,,,,,,,,,,,,,,,,,,,,,,,,,20.01441583900123,20.014435671000683,20.0144415270006,20.014453358000537,,,,,,,,,,,,,,,,,,,,,,,,559808\,001,2024-03-21_18h51.41.625,Test1,2023.2.3,None,2024-03-21 18h51.49.962923 -0300,
0,0,0,0,4,0,4,0,8,0,8,0,,,,,,,,,,,,,,,,,,,,,,,,,20.034848672999942,,,,,,,,,,,,,,,,,,,,,,,,,20.01459010200051,20.0146098969999,20.014615641001,20.014626950000093,,,,,,,,,,,,,,,,,,,,,,,,559808\,001,2024-03-21_18h51.41.625,Test1,2023.2.3,None,2024-03-21 18h51.49.962923 -0300,
0,0,0,0,4,0,4,0,9,0,9,0,,,,,,,,,,,,,,,,,,,,,,,,,20.034848672999942,,,,,,,,,,,,,,,,,,,,,,,,,20.014759004001462,20.01477969500047,20.01478575300098,20.01479738800117,,,,,,,,,,,,,,,,,,,,,,,,559808\,001,2024-03-21_18h51.41.625,Test1,2023.2.3,None,2024-03-21 18h51.49.962923 -0300,
0,0,0,0,4,0,4,0,,,,,,,,,,,,,,,,,,,,,,,,,,,,,,,,,,,,,,,,,,,,,,,,,,,,,,,,,,,,,,,,,,,,,,,,,,,,,,,,,559808\,001,2024-03-21_18h51.41.625,Test1,2023.2.3,None,2024-03-21 18h51.49.962923 -0300,
0,0,0,0,5,0,5,0,0,0,0,0,,,,,,,,,,,,,,,,,,,,,,,,,20.034848672999942,,,,,,,,,,,,,,,,,,,,,,,,,20.01545187800002,20.01547860900064,20.015485646001252,20.01549835900005,,,,,,,,,,,,,,,,,,,,,,,,559808\,001,2024-03-21_18h51.41.625,Test1,2023.2.3,None,2024-03-21 18h51.49.962923 -0300,
0,0,0,0,5,0,5,0,1,0,1,0,,,,,,,,,,,,,,,,,,,,,,,,,20.034848672999942,,,,,,,,,,,,,,,,,,,,,,,,,20.015657604000808,20.01567929200064,20.015685561000282,20.015697276001447,,,,,,,,,,,,,,,,,,,,,,,,559808\,001,2024-03-21_18h51.41.625,Test1,2023.2.3,None,2024-03-21 18h51.49.962923 -0300,
0,0,0,0,5,0,5,0,2,0,2,0,,,,,,,,,,,,,,,,,,,,,,,,,20.034848672999942,,,,,,,,,,,,,,,,,,,,,,,,,20.015840609001316,20.015861681000388,20.015867703001277,20.01587942400147,,,,,,,,,,,,,,,,,,,,,,,,559808\,001,2024-03-21_18h51.41.625,Test1,2023.2.3,None,2024-03-21 18h51.49.962923 -0300,
0,0,0,0,5,0,5,0,3,0,3,0,,,,,,,,,,,,,,,,,,,,,,,,,20.034848672999942,,,,,,,,,,,,,,,,,,,,,,,,,20.016104259000713,20.016125067000758,20.016131149001012,20.016142836000654,,,,,,,,,,,,,,,,,,,,,,,,559808\,001,2024-03-21_18h51.41.625,Test1,2023.2.3,None,2024-03-21 18h51.49.962923 -0300,
0,0,0,0,5,0,5,0,4,0,4,0,,,,,,,,,,,,,,,,,,,,,,,,,20.034848672999942,,,,,,,,,,,,,,,,,,,,,,,,,20.016282899001453,20.016303831000187,20.016309862001435,20.016321376000633,,,,,,,,,,,,,,,,,,,,,,,,559808\,001,2024-03-21_18h51.41.625,Test1,2023.2.3,None,2024-03-21 18h51.49.962923 -0300,
0,0,0,0,5,0,5,0,5,0,5,0,,,,,,,,,,,,,,,,,,,,,,,,,20.034848672999942,,,,,,,,,,,,,,,,,,,,,,,,,20.01646136400086,20.01648249400023,20.01648855500025,20.016500326000823,,,,,,,,,,,,,,,,,,,,,,,,559808\,001,2024-03-21_18h51.41.625,Test1,2023.2.3,None,2024-03-21 18h51.49.962923 -0300,
0,0,0,0,5,0,5,0,6,0,6,0,,,,,,,,,,,,,,,,,,,,,,,,,20.034848672999942,,,,,,,,,,,,,,,,,,,,,,,,,20.016635949001284,20.01665969500027,20.016665799001203,20.016679760001352,,,,,,,,,,,,,,,,,,,,,,,,559808\,001,2024-03-21_18h51.41.625,Test1,2023.2.3,None,2024-03-21 18h51.49.962923 -0300,
0,0,0,0,5,0,5,0,7,0,7,0,,,,,,,,,,,,,,,,,,,,,,,,,20.034848672999942,,,,,,,,,,,,,,,,,,,,,,,,,20.016817413001263,20.016838639001435,20.016844874000526,20.016856954000104,,,,,,,,,,,,,,,,,,,,,,,,559808\,001,2024-03-21_18h51.41.625,Test1,2023.2.3,None,2024-03-21 18h51.49.962923 -0300,
0,0,0,0,5,0,5,0,8,0,8,0,,,,,,,,,,,,,,,,,,,,,,,,,20.034848672999942,,,,,,,,,,,,,,,,,,,,,,,,,20.016995811000015,20.017016179001075,20.017022128000463,20.01703672700023,,,,,,,,,,,,,,,,,,,,,,,,559808\,001,2024-03-21_18h51.41.625,Test1,2023.2.3,None,2024-03-21 18h51.49.962923 -0300,
0,0,0,0,5,0,5,0,9,0,9,0,,,,,,,,,,,,,,,,,,,,,,,,,20.034848672999942,,,,,,,,,,,,,,,,,,,,,,,,,20.01717430000099,20.01719764900008,20.017203823001182,20.017215427000338,,,,,,,,,,,,,,,,,,,,,,,,559808\,001,2024-03-21_18h51.41.625,Test1,2023.2.3,None,2024-03-21 18h51.49.962923 -0300,
0,0,0,0,5,0,5,0,,,,,,,,,,,,,,,,,,,,,,,,,,,,,,,,,,,,,,,,,,,,,,,,,,,,,,,,,,,,,,,,,,,,,,,,,,,,,,,,,559808\,001,2024-03-21_18h51.41.625,Test1,2023.2.3,None,2024-03-21 18h51.49.962923 -0300,
0,0,0,0,6,0,6,0,0,0,0,0,,,,,,,,,,,,,,,,,,,,,,,,,20.034848672999942,,,,,,,,,,,,,,,,,,,,,,,,,20.017722166001477,20.017746867000824,20.017753355001332,20.017765784999938,,,,,,,,,,,,,,,,,,,,,,,,559808\,001,2024-03-21_18h51.41.625,Test1,2023.2.3,None,2024-03-21 18h51.49.962923 -0300,
0,0,0,0,6,0,6,0,1,0,1,0,,,,,,,,,,,,,,,,,,,,,,,,,20.034848672999942,,,,,,,,,,,,,,,,,,,,,,,,,20.01790616300059,20.01792719900004,20.01793335700131,20.017945019000763,,,,,,,,,,,,,,,,,,,,,,,,559808\,001,2024-03-21_18h51.41.625,Test1,2023.2.3,None,2024-03-21 18h51.49.962923 -0300,
0,0,0,0,6,0,6,0,2,0,2,0,,,,,,,,,,,,,,,,,,,,,,,,,20.034848672999942,,,,,,,,,,,,,,,,,,,,,,,,,20.018088479000653,20.018109026001184,20.018114985001375,20.018126611001207,,,,,,,,,,,,,,,,,,,,,,,,559808\,001,2024-03-21_18h51.41.625,Test1,2023.2.3,None,2024-03-21 18h51.49.962923 -0300,
0,0,0,0,6,0,6,0,3,0,3,0,,,,,,,,,,,,,,,,,,,,,,,,,20.034848672999942,,,,,,,,,,,,,,,,,,,,,,,,,20.01826656400044,20.018286770000486,20.018292814000233,20.018310638000912,,,,,,,,,,,,,,,,,,,,,,,,559808\,001,2024-03-21_18h51.41.625,Test1,2023.2.3,None,2024-03-21 18h51.49.962923 -0300,
0,0,0,0,6,0,6,0,4,0,4,0,,,,,,,,,,,,,,,,,,,,,,,,,20.034848672999942,,,,,,,,,,,,,,,,,,,,,,,,,20.018447219001246,20.018468694001058,20.01847478000127,20.01848721600072,,,,,,,,,,,,,,,,,,,,,,,,559808\,001,2024-03-21_18h51.41.625,Test1,2023.2.3,None,2024-03-21 18h51.49.962923 -0300,
0,0,0,0,6,0,6,0,5,0,5,0,,,,,,,,,,,,,,,,,,,,,,,,,20.034848672999942,,,,,,,,,,,,,,,,,,,,,,,,,20.018628568001077,20.01865033500144,20.018656277001355,20.018668652000997,,,,,,,,,,,,,,,,,,,,,,,,559808\,001,2024-03-21_18h51.41.625,Test1,2023.2.3,None,2024-03-21 18h51.49.962923 -0300,
0,0,0,0,6,0,6,0,6,0,6,0,,,,,,,,,,,,,,,,,,,,,,,,,20.034848672999942,,,,,,,,,,,,,,,,,,,,,,,,,20.018808853001246,20.018830099999832,20.018836119001207,20.018849079000574,,,,,,,,,,,,,,,,,,,,,,,,559808\,001,2024-03-21_18h51.41.625,Test1,2023.2.3,None,2024-03-21 18h51.49.962923 -0300,
0,0,0,0,6,0,6,0,7,0,7,0,,,,,,,,,,,,,,,,,,,,,,,,,20.034848672999942,,,,,,,,,,,,,,,,,,,,,,,,,20.018992544000866,20.01901398100017,20.019020068000827,20.01903233900157,,,,,,,,,,,,,,,,,,,,,,,,559808\,001,2024-03-21_18h51.41.625,Test1,2023.2.3,None,2024-03-21 18h51.49.962923 -0300,
0,0,0,0,6,0,6,0,8,0,8,0,,,,,,,,,,,,,,,,,,,,,,,,,20.034848672999942,,,,,,,,,,,,,,,,,,,,,,,,,20.01917145400148,20.01919268200072,20.019198657000743,20.019210969001506,,,,,,,,,,,,,,,,,,,,,,,,559808\,001,2024-03-21_18h51.41.625,Test1,2023.2.3,None,2024-03-21 18h51.49.962923 -0300,
0,0,0,0,6,0,6,0,9,0,9,0,,,,,,,,,,,,,,,,,,,,,,,,,20.034848672999942,,,,,,,,,,,,,,,,,,,,,,,,,20.019351754001036,20.019372907001525,20.019378951999897,20.0193914270003,,,,,,,,,,,,,,,,,,,,,,,,559808\,001,2024-03-21_18h51.41.625,Test1,2023.2.3,None,2024-03-21 18h51.49.962923 -0300,
0,0,0,0,6,0,6,0,,,,,,,,,,,,,,,,,,,,,,,,,,,,,,,,,,,,,,,,,,,,,,,,,,,,,,,,,,,,,,,,,,,,,,,,,,,,,,,,,559808\,001,2024-03-21_18h51.41.625,Test1,2023.2.3,None,2024-03-21 18h51.49.962923 -0300,
0,0,0,0,7,0,7,0,0,0,0,0,,,,,,,,,,,,,,,,,,,,,,,,,20.034848672999942,,,,,,,,,,,,,,,,,,,,,,,,,20.019910211000024,20.019936176000556,20.019942814000387,20.019956154001193,,,,,,,,,,,,,,,,,,,,,,,,559808\,001,2024-03-21_18h51.41.625,Test1,2023.2.3,None,2024-03-21 18h51.49.962923 -0300,
0,0,0,0,7,0,7,0,1,0,1,0,,,,,,,,,,,,,,,,,,,,,,,,,20.034848672999942,,,,,,,,,,,,,,,,,,,,,,,,,20.020102803000555,20.020161125999948,20.020167485001366,20.020180557001368,,,,,,,,,,,,,,,,,,,,,,,,559808\,001,2024-03-21_18h51.41.625,Test1,2023.2.3,None,2024-03-21 18h51.49.962923 -0300,
0,0,0,0,7,0,7,0,2,0,2,0,,,,,,,,,,,,,,,,,,,,,,,,,20.034848672999942,,,,,,,,,,,,,,,,,,,,,,,,,20.020318898999903,20.02034082099999,20.020347039000626,20.020359538000776,,,,,,,,,,,,,,,,,,,,,,,,559808\,001,2024-03-21_18h51.41.625,Test1,2023.2.3,None,2024-03-21 18h51.49.962923 -0300,
0,0,0,0,7,0,7,0,3,0,3,0,,,,,,,,,,,,,,,,,,,,,,,,,20.034848672999942,,,,,,,,,,,,,,,,,,,,,,,,,20.020501843000602,20.02052344600088,20.020529291001367,20.020541509000395,,,,,,,,,,,,,,,,,,,,,,,,559808\,001,2024-03-21_18h51.41.625,Test1,2023.2.3,None,2024-03-21 18h51.49.962923 -0300,
0,0,0,0,7,0,7,0,4,0,4,0,,,,,,,,,,,,,,,,,,,,,,,,,20.034848672999942,,,,,,,,,,,,,,,,,,,,,,,,,20.02067545099999,20.020700432000012,20.020708191001177,20.0207209830005,,,,,,,,,,,,,,,,,,,,,,,,559808\,001,2024-03-21_18h51.41.625,Test1,2023.2.3,None,2024-03-21 18h51.49.962923 -0300,
0,0,0,0,7,0,7,0,5,0,5,0,,,,,,,,,,,,,,,,,,,,,,,,,20.034848672999942,,,,,,,,,,,,,,,,,,,,,,,,,20.020857012001215,20.020877771001324,20.02088387100048,20.020896123000057,,,,,,,,,,,,,,,,,,,,,,,,559808\,001,2024-03-21_18h51.41.625,Test1,2023.2.3,None,2024-03-21 18h51.49.962923 -0300,
0,0,0,0,7,0,7,0,6,0,6,0,,,,,,,,,,,,,,,,,,,,,,,,,20.034848672999942,,,,,,,,,,,,,,,,,,,,,,,,,20.021033191000242,20.021058129001176,20.021064104001198,20.021076430000903,,,,,,,,,,,,,,,,,,,,,,,,559808\,001,2024-03-21_18h51.41.625,Test1,2023.2.3,None,2024-03-21 18h51.49.962923 -0300,
0,0,0,0,7,0,7,0,7,0,7,0,,,,,,,,,,,,,,,,,,,,,,,,,20.034848672999942,,,,,,,,,,,,,,,,,,,,,,,,,20.02121119399999,20.021236189000774,20.021242601000267,20.021255433000988,,,,,,,,,,,,,,,,,,,,,,,,559808\,001,2024-03-21_18h51.41.625,Test1,2023.2.3,None,2024-03-21 18h51.49.962923 -0300,
0,0,0,0,7,0,7,0,8,0,8,0,,,,,,,,,,,,,,,,,,,,,,,,,20.034848672999942,,,,,,,,,,,,,,,,,,,,,,,,,20.021392565000497,20.02141366500109,20.021419690001494,20.021432003000882,,,,,,,,,,,,,,,,,,,,,,,,559808\,001,2024-03-21_18h51.41.625,Test1,2023.2.3,None,2024-03-21 18h51.49.962923 -0300,
0,0,0,0,7,0,7,0,9,0,9,0,,,,,,,,,,,,,,,,,,,,,,,,,20.034848672999942,,,,,,,,,,,,,,,,,,,,,,,,,20.021565666000242,20.02158659700035,20.021592564000457,20.021604696001305,,,,,,,,,,,,,,,,,,,,,,,,559808\,001,2024-03-21_18h51.41.625,Test1,2023.2.3,None,2024-03-21 18h51.49.962923 -0300,
0,0,0,0,7,0,7,0,,,,,,,,,,,,,,,,,,,,,,,,,,,,,,,,,,,,,,,,,,,,,,,,,,,,,,,,,,,,,,,,,,,,,,,,,,,,,,,,,559808\,001,2024-03-21_18h51.41.625,Test1,2023.2.3,None,2024-03-21 18h51.49.962923 -0300,
0,0,0,0,8,0,8,0,0,0,0,0,,,,,,,,,,,,,,,,,,,,,,,,,20.034848672999942,,,,,,,,,,,,,,,,,,,,,,,,,20.022151418001158,20.0221777200004,20.022184424000443,20.022197912001502,,,,,,,,,,,,,,,,,,,,,,,,559808\,001,2024-03-21_18h51.41.625,Test1,2023.2.3,None,2024-03-21 18h51.49.962923 -0300,
0,0,0,0,8,0,8,0,1,0,1,0,,,,,,,,,,,,,,,,,,,,,,,,,20.034848672999942,,,,,,,,,,,,,,,,,,,,,,,,,20.02234234700154,20.022364915001162,20.02237122200131,20.022384038000382,,,,,,,,,,,,,,,,,,,,,,,,559808\,001,2024-03-21_18h51.41.625,Test1,2023.2.3,None,2024-03-21 18h51.49.962923 -0300,
0,0,0,0,8,0,8,0,2,0,2,0,,,,,,,,,,,,,,,,,,,,,,,,,20.034848672999942,,,,,,,,,,,,,,,,,,,,,,,,,20.022526957000082,20.02254901500055,20.022555098999874,20.022567563000848,,,,,,,,,,,,,,,,,,,,,,,,559808\,001,2024-03-21_18h51.41.625,Test1,2023.2.3,None,2024-03-21 18h51.49.962923 -0300,
0,0,0,0,8,0,8,0,3,0,3,0,,,,,,,,,,,,,,,,,,,,,,,,,20.034848672999942,,,,,,,,,,,,,,,,,,,,,,,,,20.02271230400038,20.022736460001397,20.022742479000954,20.022754954001357,,,,,,,,,,,,,,,,,,,,,,,,559808\,001,2024-03-21_18h51.41.625,Test1,2023.2.3,None,2024-03-21 18h51.49.962923 -0300,
0,0,0,0,8,0,8,0,4,0,4,0,,,,,,,,,,,,,,,,,,,,,,,,,20.034848672999942,,,,,,,,,,,,,,,,,,,,,,,,,20.02289146900148,20.0229133440007,20.02291934400091,20.022932050000236,,,,,,,,,,,,,,,,,,,,,,,,559808\,001,2024-03-21_18h51.41.625,Test1,2023.2.3,None,2024-03-21 18h51.49.962923 -0300,
0,0,0,0,8,0,8,0,5,0,5,0,,,,,,,,,,,,,,,,,,,,,,,,,20.034848672999942,,,,,,,,,,,,,,,,,,,,,,,,,20.02306699700057,20.02309135700125,20.023097444000086,20.02310997600034,,,,,,,,,,,,,,,,,,,,,,,,559808\,001,2024-03-21_18h51.41.625,Test1,2023.2.3,None,2024-03-21 18h51.49.962923 -0300,
0,0,0,0,8,0,8,0,6,0,6,0,,,,,,,,,,,,,,,,,,,,,,,,,20.034848672999942,,,,,,,,,,,,,,,,,,,,,,,,,20.02324839100038,20.023272451000594,20.02327855800104,20.02329312100119,,,,,,,,,,,,,,,,,,,,,,,,559808\,001,2024-03-21_18h51.41.625,Test1,2023.2.3,None,2024-03-21 18h51.49.962923 -0300,
0,0,0,0,8,0,8,0,7,0,7,0,,,,,,,,,,,,,,,,,,,,,,,,,20.034848672999942,,,,,,,,,,,,,,,,,,,,,,,,,20.0234281130015,20.023449034000805,20.023455029000615,20.02346718700028,,,,,,,,,,,,,,,,,,,,,,,,559808\,001,2024-03-21_18h51.41.625,Test1,2023.2.3,None,2024-03-21 18h51.49.962923 -0300,
0,0,0,0,8,0,8,0,8,0,8,0,,,,,,,,,,,,,,,,,,,,,,,,,20.034848672999942,,,,,,,,,,,,,,,,,,,,,,,,,20.0236001580015,20.023621375999937,20.023627334001503,20.023639614000786,,,,,,,,,,,,,,,,,,,,,,,,559808\,001,2024-03-21_18h51.41.625,Test1,2023.2.3,None,2024-03-21 18h51.49.962923 -0300,
0,0,0,0,8,0,8,0,9,0,9,0,,,,,,,,,,,,,,,,,,,,,,,,,20.034848672999942,,,,,,,,,,,,,,,,,,,,,,,,,20.02377649600021,20.023797658001058,20.023803682001017,20.023816032000468,,,,,,,,,,,,,,,,,,,,,,,,559808\,001,2024-03-21_18h51.41.625,Test1,2023.2.3,None,2024-03-21 18h51.49.962923 -0300,
0,0,0,0,8,0,8,0,,,,,,,,,,,,,,,,,,,,,,,,,,,,,,,,,,,,,,,,,,,,,,,,,,,,,,,,,,,,,,,,,,,,,,,,,,,,,,,,,559808\,001,2024-03-21_18h51.41.625,Test1,2023.2.3,None,2024-03-21 18h51.49.962923 -0300,
0,0,0,0,9,0,9,0,0,0,0,0,,,,,,,,,,,,,,,,,,,,,,,,,20.034848672999942,,,,,,,,,,,,,,,,,,,,,,,,,20.024334690000615,20.024360139001146,20.024366598001507,20.02437972700136,,,,,,,,,,,,,,,,,,,,,,,,559808\,001,2024-03-21_18h51.41.625,Test1,2023.2.3,None,2024-03-21 18h51.49.962923 -0300,
0,0,0,0,9,0,9,0,1,0,1,0,,,,,,,,,,,,,,,,,,,,,,,,,20.034848672999942,,,,,,,,,,,,,,,,,,,,,,,,,20.02452014099981,20.024542565000957,20.024548619001507,20.0245609600006,,,,,,,,,,,,,,,,,,,,,,,,559808\,001,2024-03-21_18h51.41.625,Test1,2023.2.3,None,2024-03-21 18h51.49.962923 -0300,
0,0,0,0,9,0,9,0,2,0,2,0,,,,,,,,,,,,,,,,,,,,,,,,,20.034848672999942,,,,,,,,,,,,,,,,,,,,,,,,,20.024703701001272,20.02472486500119,20.024730859000556,20.024746169001446,,,,,,,,,,,,,,,,,,,,,,,,559808\,001,2024-03-21_18h51.41.625,Test1,2023.2.3,None,2024-03-21 18h51.49.962923 -0300,
0,0,0,0,9,0,9,0,3,0,3,0,,,,,,,,,,,,,,,,,,,,,,,,,20.034848672999942,,,,,,,,,,,,,,,,,,,,,,,,,20.02488521900159,20.02490907399988,20.024915273999795,20.024927786000262,,,,,,,,,,,,,,,,,,,,,,,,559808\,001,2024-03-21_18h51.41.625,Test1,2023.2.3,None,2024-03-21 18h51.49.962923 -0300,
0,0,0,0,9,0,9,0,4,0,4,0,,,,,,,,,,,,,,,,,,,,,,,,,20.034848672999942,,,,,,,,,,,,,,,,,,,,,,,,,20.025067234000744,20.025088723999943,20.025094566000917,20.025106566999966,,,,,,,,,,,,,,,,,,,,,,,,559808\,001,2024-03-21_18h51.41.625,Test1,2023.2.3,None,2024-03-21 18h51.49.962923 -0300,
0,0,0,0,9,0,9,0,5,0,5,0,,,,,,,,,,,,,,,,,,,,,,,,,20.034848672999942,,,,,,,,,,,,,,,,,,,,,,,,,20.02530403899982,20.025332017001347,20.025338492001538,20.025352939001095,,,,,,,,,,,,,,,,,,,,,,,,559808\,001,2024-03-21_18h51.41.625,Test1,2023.2.3,None,2024-03-21 18h51.49.962923 -0300,
0,0,0,0,9,0,9,0,6,0,6,0,,,,,,,,,,,,,,,,,,,,,,,,,20.034848672999942,,,,,,,,,,,,,,,,,,,,,,,,,20.025493805000224,20.025518812000882,20.025524963000862,20.025537463001456,,,,,,,,,,,,,,,,,,,,,,,,559808\,001,2024-03-21_18h51.41.625,Test1,2023.2.3,None,2024-03-21 18h51.49.962923 -0300,
0,0,0,0,9,0,9,0,7,0,7,0,,,,,,,,,,,,,,,,,,,,,,,,,20.034848672999942,,,,,,,,,,,,,,,,,,,,,,,,,20.025674083000922,20.025695207001263,20.02570117600044,20.025713177001307,,,,,,,,,,,,,,,,,,,,,,,,559808\,001,2024-03-21_18h51.41.625,Test1,2023.2.3,None,2024-03-21 18h51.49.962923 -0300,
0,0,0,0,9,0,9,0,8,0,8,0,,,,,,,,,,,,,,,,,,,,,,,,,20.034848672999942,,,,,,,,,,,,,,,,,,,,,,,,,20.025854405001155,20.025875250001263,20.025881173000016,20.02589343100044,,,,,,,,,,,,,,,,,,,,,,,,559808\,001,2024-03-21_18h51.41.625,Test1,2023.2.3,None,2024-03-21 18h51.49.962923 -0300,
0,0,0,0,9,0,9,0,9,0,9,0,,,,,,,,,,,,,,,,,,,,,,,,,20.034848672999942,,,,,,,,,,,,,,,,,,,,,,,,,20.02603362500122,20.0260548440001,20.026060774000143,20.026073275999806,,,,,,,,,,,,,,,,,,,,,,,,559808\,001,2024-03-21_18h51.41.625,Test1,2023.2.3,None,2024-03-21 18h51.49.962923 -0300,
0,0,0,0,9,0,9,0,,,,,,,,,,,,,,,,,,,,,,,,,,,,,,,,,,,,,,,,,,,,,,,,,,,,,,,,,,,,,,,,,,,,,,,,,,,,,,,,,559808\,001,2024-03-21_18h51.41.625,Test1,2023.2.3,None,2024-03-21 18h51.49.962923 -0300,
0,0,0,0,,,,,,,,,0,0,0,0,0,0,0,0,,,,,,,,,,,,,,,,,20.034848672999942,,,,,,,,,,,,,,,,,,,,,,,,,,,,,20.026696359000198,20.034848672999942,20.034848672999942,20.034848672999942,20.034848672999942,25.028436153001167,25.028436153001167,25.028436153001167,25.028436153001167,25.019663676001073,25.019680321000124,25.028436153001167,26.009889185999782,,,,,,,,,,,559808\,001,2024-03-21_18h51.41.625,Test1,2023.2.3,None,2024-03-21 18h51.49.962923 -0300,
0,0,0,0,,,,,,,,,0,0,0,0,,,,,,,,,,,,,,,,,,,,,,,,,,,,,,,,,,,,,,,,,,,,,,,,,,,,,,,,,,,,,,,,,,,,,,,,,559808\,001,2024-03-21_18h51.41.625,Test1,2023.2.3,None,2024-03-21 18h51.49.962923 -0300,
0,0,0,0,,,,,,,,,,,,,,,,,0,0,0,0,0,0,0,0,,,,,,,,,26.06072451900036,,,,,,,,,,,,,,,,,,,,,,,,,,,,,,,,,,,,,,,,,,26.011692923000737,26.011777883000832,26.011792479001087,26.01181826100037,,,,,,,559808\,001,2024-03-21_18h51.41.625,Test1,2023.2.3,None,2024-03-21 18h51.49.962923 -0300,
0,0,0,0,,,,,,,,,,,,,,,,,0,0,0,0,1,0,1,0,,,,,,,,,26.06072451900036,,,,,,,,,,,,,,,,,,,,,,,,,,,,,,,,,,,,,,,,,,26.01208994999979,26.012150157001088,26.01216282400128,26.01218566500029,,,,,,,559808\,001,2024-03-21_18h51.41.625,Test1,2023.2.3,None,2024-03-21 18h51.49.962923 -0300,
0,0,0,0,,,,,,,,,,,,,,,,,0,0,0,0,2,0,2,0,,,,,,,,,26.06072451900036,,,,,,,,,,,,,,,,,,,,,,,,,,,,,,,,,,,,,,,,,,26.012444886000594,26.014496411000437,26.014507910000248,26.014526877001117,,,,,,,559808\,001,2024-03-21_18h51.41.625,Test1,2023.2.3,None,2024-03-21 18h51.49.962923 -0300,
0,0,0,0,,,,,,,,,,,,,,,,,0,0,0,0,3,0,3,0,,,,,,,,,26.06072451900036,,,,,,,,,,,,,,,,,,,,,,,,,,,,,,,,,,,,,,,,,,26.0147833050014,26.014835445001154,26.014845704001345,26.014864153001326,,,,,,,559808\,001,2024-03-21_18h51.41.625,Test1,2023.2.3,None,2024-03-21 18h51.49.962923 -0300,
0,0,0,0,,,,,,,,,,,,,,,,,0,0,0,0,4,0,4,0,,,,,,,,,26.06072451900036,,,,,,,,,,,,,,,,,,,,,,,,,,,,,,,,,,,,,,,,,,26.01508895799998,26.015152910000324,26.015178970001216,26.015273117000106,,,,,,,559808\,001,2024-03-21_18h51.41.625,Test1,2023.2.3,None,2024-03-21 18h51.49.962923 -0300,
0,0,0,0,,,,,,,,,,,,,,,,,0,0,0,0,5,0,5,0,,,,,,,,,26.06072451900036,,,,,,,,,,,,,,,,,,,,,,,,,,,,,,,,,,,,,,,,,,26.01554220900107,26.015596066999933,26.01560626600076,26.01562443700095,,,,,,,559808\,001,2024-03-21_18h51.41.625,Test1,2023.2.3,None,2024-03-21 18h51.49.962923 -0300,
0,0,0,0,,,,,,,,,,,,,,,,,0,0,0,0,6,0,6,0,,,,,,,,,26.06072451900036,,,,,,,,,,,,,,,,,,,,,,,,,,,,,,,,,,,,,,,,,,26.01585791100115,26.015907551000055,26.015917515000183,26.01593550800135,,,,,,,559808\,001,2024-03-21_18h51.41.625,Test1,2023.2.3,None,2024-03-21 18h51.49.962923 -0300,
0,0,0,0,,,,,,,,,,,,,,,,,0,0,0,0,7,0,7,0,,,,,,,,,26.06072451900036,,,,,,,,,,,,,,,,,,,,,,,,,,,,,,,,,,,,,,,,,,26.016150244000528,26.01619722200121,26.016207079001106,26.016224794000664,,,,,,,559808\,001,2024-03-21_18h51.41.625,Test1,2023.2.3,None,2024-03-21 18h51.49.962923 -0300,
0,0,0,0,,,,,,,,,,,,,,,,,0,0,0,0,8,0,8,0,,,,,,,,,26.06072451900036,,,,,,,,,,,,,,,,,,,,,,,,,,,,,,,,,,,,,,,,,,26.01643359800073,26.01648107500114,26.016490885000167,26.016508953000084,,,,,,,559808\,001,2024-03-21_18h51.41.625,Test1,2023.2.3,None,2024-03-21 18h51.49.962923 -0300,
0,0,0,0,,,,,,,,,,,,,,,,,0,0,0,0,9,0,9,0,,,,,,,,,26.06072451900036,,,,,,,,,,,,,,,,,,,,,,,,,,,,,,,,,,,,,,,,,,26.016727111000364,26.01677450200077,26.016784209001344,26.01680203200158,,,,,,,559808\,001,2024-03-21_18h51.41.625,Test1,2023.2.3,None,2024-03-21 18h51.49.962923 -0300,
0,0,0,0,,,,,,,,,,,,,,,,,0,0,0,0,,,,,,,,,,,,,,,,,,,,,,,,,,,,,,,,,,,,,,,,,,,,,,,,,,,,,,,,,,,,,,,,,559808\,001,2024-03-21_18h51.41.625,Test1,2023.2.3,None,2024-03-21 18h51.49.962923 -0300,
0,0,0,0,,,,,,,,,,,,,,,,,1,0,1,0,0,0,0,0,,,,,,,,,26.06072451900036,,,,,,,,,,,,,,,,,,,,,,,,,,,,,,,,,,,,,,,,,,26.017895521001265,26.017953667000256,26.01796539499992,26.018029068000033,,,,,,,559808\,001,2024-03-21_18h51.41.625,Test1,2023.2.3,None,2024-03-21 18h51.49.962923 -0300,
0,0,0,0,,,,,,,,,,,,,,,,,1,0,1,0,1,0,1,0,,,,,,,,,26.06072451900036,,,,,,,,,,,,,,,,,,,,,,,,,,,,,,,,,,,,,,,,,,26.01830677700127,26.018370900001173,26.01838173500073,26.01840062700103,,,,,,,559808\,001,2024-03-21_18h51.41.625,Test1,2023.2.3,None,2024-03-21 18h51.49.962923 -0300,
0,0,0,0,,,,,,,,,,,,,,,,,1,0,1,0,2,0,2,0,,,,,,,,,26.06072451900036,,,,,,,,,,,,,,,,,,,,,,,,,,,,,,,,,,,,,,,,,,26.018641919999936,26.0186863050003,26.018695482000112,26.0187350340002,,,,,,,559808\,001,2024-03-21_18h51.41.625,Test1,2023.2.3,None,2024-03-21 18h51.49.962923 -0300,
0,0,0,0,,,,,,,,,,,,,,,,,1,0,1,0,3,0,3,0,,,,,,,,,26.06072451900036,,,,,,,,,,,,,,,,,,,,,,,,,,,,,,,,,,,,,,,,,,26.01893537000069,26.018979648000823,26.018988794001416,26.019005328000276,,,,,,,559808\,001,2024-03-21_18h51.41.625,Test1,2023.2.3,None,2024-03-21 18h51.49.962923 -0300,
0,0,0,0,,,,,,,,,,,,,,,,,1,0,1,0,4,0,4,0,,,,,,,,,26.06072451900036,,,,,,,,,,,,,,,,,,,,,,,,,,,,,,,,,,,,,,,,,,26.019208557001548,26.01925627000128,26.01926547900075,26.0192820200009,,,,,,,559808\,001,2024-03-21_18h51.41.625,Test1,2023.2.3,None,2024-03-21 18h51.49.962923 -0300,
0,0,0,0,,,,,,,,,,,,,,,,,1,0,1,0,5,0,5,0,,,,,,,,,26.06072451900036,,,,,,,,,,,,,,,,,,,,,,,,,,,,,,,,,,,,,,,,,,26.01947782300158,26.019521198000803,26.01952989900019,26.019550506000087,,,,,,,559808\,001,2024-03-21_18h51.41.625,Test1,2023.2.3,None,2024-03-21 18h51.49.962923 -0300,
0,0,0,0,,,,,,,,,,,,,,,,,1,0,1,0,6,0,6,0,,,,,,,,,26.06072451900036,,,,,,,,,,,,,,,,,,,,,,,,,,,,,,,,,,,,,,,,,,26.019743579001442,26.019786943001236,26.0197956840002,26.01981180599978,,,,,,,559808\,001,2024-03-21_18h51.41.625,Test1,2023.2.3,None,2024-03-21 18h51.49.962923 -0300,
0,0,0,0,,,,,,,,,,,,,,,,,1,0,1,0,7,0,7,0,,,,,,,,,26.06072451900036,,,,,,,,,,,,,,,,,,,,,,,,,,,,,,,,,,,,,,,,,,26.020007798000734,26.020050225000887,26.020059182001205,26.02007554500051,,,,,,,559808\,001,2024-03-21_18h51.41.625,Test1,2023.2.3,None,2024-03-21 18h51.49.962923 -0300,
0,0,0,0,,,,,,,,,,,,,,,,,1,0,1,0,8,0,8,0,,,,,,,,,26.06072451900036,,,,,,,,,,,,,,,,,,,,,,,,,,,,,,,,,,,,,,,,,,26.02026846999979,26.020310976000474,26.020319754999946,26.020339526001408,,,,,,,559808\,001,2024-03-21_18h51.41.625,Test1,2023.2.3,None,2024-03-21 18h51.49.962923 -0300,
0,0,0,0,,,,,,,,,,,,,,,,,1,0,1,0,9,0,9,0,,,,,,,,,26.06072451900036,,,,,,,,,,,,,,,,,,,,,,,,,,,,,,,,,,,,,,,,,,26.02052618000016,26.020569596001224,26.020578476000082,26.020594687000994,,,,,,,559808\,001,2024-03-21_18h51.41.625,Test1,2023.2.3,None,2024-03-21 18h51.49.962923 -0300,
0,0,0,0,,,,,,,,,,,,,,,,,1,0,1,0,,,,,,,,,,,,,,,,,,,,,,,,,,,,,,,,,,,,,,,,,,,,,,,,,,,,,,,,,,,,,,,,,559808\,001,2024-03-21_18h51.41.625,Test1,2023.2.3,None,2024-03-21 18h51.49.962923 -0300,
0,0,0,0,,,,,,,,,,,,,,,,,2,0,2,0,0,0,0,0,,,,,,,,,26.06072451900036,,,,,,,,,,,,,,,,,,,,,,,,,,,,,,,,,,,,,,,,,,26.02137932900041,26.021428200001537,26.021437954999783,26.02145954000116,,,,,,,559808\,001,2024-03-21_18h51.41.625,Test1,2023.2.3,None,2024-03-21 18h51.49.962923 -0300,
0,0,0,0,,,,,,,,,,,,,,,,,2,0,2,0,1,0,1,0,,,,,,,,,26.06072451900036,,,,,,,,,,,,,,,,,,,,,,,,,,,,,,,,,,,,,,,,,,26.021659680000084,26.02170355400085,26.02171239800009,26.021729001000494,,,,,,,559808\,001,2024-03-21_18h51.41.625,Test1,2023.2.3,None,2024-03-21 18h51.49.962923 -0300,
0,0,0,0,,,,,,,,,,,,,,,,,2,0,2,0,2,0,2,0,,,,,,,,,26.06072451900036,,,,,,,,,,,,,,,,,,,,,,,,,,,,,,,,,,,,,,,,,,26.021919110000454,26.021962677001284,26.021971535001285,26.021987721000187,,,,,,,559808\,001,2024-03-21_18h51.41.625,Test1,2023.2.3,None,2024-03-21 18h51.49.962923 -0300,
0,0,0,0,,,,,,,,,,,,,,,,,2,0,2,0,3,0,3,0,,,,,,,,,26.06072451900036,,,,,,,,,,,,,,,,,,,,,,,,,,,,,,,,,,,,,,,,,,26.022307623001325,26.022352749001584,26.022361835000993,26.022378282001227,,,,,,,559808\,001,2024-03-21_18h51.41.625,Test1,2023.2.3,None,2024-03-21 18h51.49.962923 -0300,
0,0,0,0,,,,,,,,,,,,,,,,,2,0,2,0,4,0,4,0,,,,,,,,,26.06072451900036,,,,,,,,,,,,,,,,,,,,,,,,,,,,,,,,,,,,,,,,,,26.022570918999918,26.02261326200096,26.02262219000113,26.022638725000434,,,,,,,559808\,001,2024-03-21_18h51.41.625,Test1,2023.2.3,None,2024-03-21 18h51.49.962923 -0300,
0,0,0,0,,,,,,,,,,,,,,,,,2,0,2,0,5,0,5,0,,,,,,,,,26.06072451900036,,,,,,,,,,,,,,,,,,,,,,,,,,,,,,,,,,,,,,,,,,26.02284806500029,26.022889720999956,26.022898191000422,26.022913828001037,,,,,,,559808\,001,2024-03-21_18h51.41.625,Test1,2023.2.3,None,2024-03-21 18h51.49.962923 -0300,
0,0,0,0,,,,,,,,,,,,,,,,,2,0,2,0,6,0,6,0,,,,,,,,,26.06072451900036,,,,,,,,,,,,,,,,,,,,,,,,,,,,,,,,,,,,,,,,,,26.023101959000996,26.02314313700117,26.02315169800022,26.023170540000137,,,,,,,559808\,001,2024-03-21_18h51.41.625,Test1,2023.2.3,None,2024-03-21 18h51.49.962923 -0300,
0,0,0,0,,,,,,,,,,,,,,,,,2,0,2,0,7,0,7,0,,,,,,,,,26.06072451900036,,,,,,,,,,,,,,,,,,,,,,,,,,,,,,,,,,,,,,,,,,26.023352273001365,26.02339415300048,26.02340244900006,26.023417899999913,,,,,,,559808\,001,2024-03-21_18h51.41.625,Test1,2023.2.3,None,2024-03-21 18h51.49.962923 -0300,
0,0,0,0,,,,,,,,,,,,,,,,,2,0,2,0,8,0,8,0,,,,,,,,,26.06072451900036,,,,,,,,,,,,,,,,,,,,,,,,,,,,,,,,,,,,,,,,,,26.023607422001078,26.023649008000575,26.023657352001464,26.023672672999965,,,,,,,559808\,001,2024-03-21_18h51.41.625,Test1,2023.2.3,None,2024-03-21 18h51.49.962923 -0300,
0,0,0,0,,,,,,,,,,,,,,,,,2,0,2,0,9,0,9,0,,,,,,,,,26.06072451900036,,,,,,,,,,,,,,,,,,,,,,,,,,,,,,,,,,,,,,,,,,26.02385610500096,26.023897320001197,26.023905664000267,26.023921252000946,,,,,,,559808\,001,2024-03-21_18h51.41.625,Test1,2023.2.3,None,2024-03-21 18h51.49.962923 -0300,
0,0,0,0,,,,,,,,,,,,,,,,,2,0,2,0,,,,,,,,,,,,,,,,,,,,,,,,,,,,,,,,,,,,,,,,,,,,,,,,,,,,,,,,,,,,,,,,,559808\,001,2024-03-21_18h51.41.625,Test1,2023.2.3,None,2024-03-21 18h51.49.962923 -0300,
0,0,0,0,,,,,,,,,,,,,,,,,3,0,3,0,0,0,0,0,,,,,,,,,26.06072451900036,,,,,,,,,,,,,,,,,,,,,,,,,,,,,,,,,,,,,,,,,,26.024654868000653,26.02470227500089,26.02471152600083,26.02472763500009,,,,,,,559808\,001,2024-03-21_18h51.41.625,Test1,2023.2.3,None,2024-03-21 18h51.49.962923 -0300,
0,0,0,0,,,,,,,,,,,,,,,,,3,0,3,0,1,0,1,0,,,,,,,,,26.06072451900036,,,,,,,,,,,,,,,,,,,,,,,,,,,,,,,,,,,,,,,,,,26.02492189900113,26.024964182000986,26.024972695000542,26.024988449000375,,,,,,,559808\,001,2024-03-21_18h51.41.625,Test1,2023.2.3,None,2024-03-21 18h51.49.962923 -0300,
0,0,0,0,,,,,,,,,,,,,,,,,3,0,3,0,2,0,2,0,,,,,,,,,26.06072451900036,,,,,,,,,,,,,,,,,,,,,,,,,,,,,,,,,,,,,,,,,,26.025177409001117,26.025223049000488,26.02523181000106,26.025252584000555,,,,,,,559808\,001,2024-03-21_18h51.41.625,Test1,2023.2.3,None,2024-03-21 18h51.49.962923 -0300,
0,0,0,0,,,,,,,,,,,,,,,,,3,0,3,0,3,0,3,0,,,,,,,,,26.06072451900036,,,,,,,,,,,,,,,,,,,,,,,,,,,,,,,,,,,,,,,,,,26.025442946000112,26.02548582700001,26.025494374000118,26.0255110850012,,,,,,,559808\,001,2024-03-21_18h51.41.625,Test1,2023.2.3,None,2024-03-21 18h51.49.962923 -0300,
0,0,0,0,,,,,,,,,,,,,,,,,3,0,3,0,4,0,4,0,,,,,,,,,26.06072451900036,,,,,,,,,,,,,,,,,,,,,,,,,,,,,,,,,,,,,,,,,,26.025696889000756,26.02573886600112,26.02574735000053,26.02576387100089,,,,,,,559808\,001,2024-03-21_18h51.41.625,Test1,2023.2.3,None,2024-03-21 18h51.49.962923 -0300,
0,0,0,0,,,,,,,,,,,,,,,,,3,0,3,0,5,0,5,0,,,,,,,,,26.06072451900036,,,,,,,,,,,,,,,,,,,,,,,,,,,,,,,,,,,,,,,,,,26.025943614000425,26.025985889000367,26.025994520001404,26.026011240001026,,,,,,,559808\,001,2024-03-21_18h51.41.625,Test1,2023.2.3,None,2024-03-21 18h51.49.962923 -0300,
0,0,0,0,,,,,,,,,,,,,,,,,3,0,3,0,6,0,6,0,,,,,,,,,26.06072451900036,,,,,,,,,,,,,,,,,,,,,,,,,,,,,,,,,,,,,,,,,,26.026195873000688,26.026238299000397,26.02624652600025,26.02626273700116,,,,,,,559808\,001,2024-03-21_18h51.41.625,Test1,2023.2.3,None,2024-03-21 18h51.49.962923 -0300,
0,0,0,0,,,,,,,,,,,,,,,,,3,0,3,0,7,0,7,0,,,,,,,,,26.06072451900036,,,,,,,,,,,,,,,,,,,,,,,,,,,,,,,,,,,,,,,,,,26.026446275000126,26.026489256000787,26.02649807400121,26.026514646000578,,,,,,,559808\,001,2024-03-21_18h51.41.625,Test1,2023.2.3,None,2024-03-21 18h51.49.962923 -0300,
0,0,0,0,,,,,,,,,,,,,,,,,3,0,3,0,8,0,8,0,,,,,,,,,26.06072451900036,,,,,,,,,,,,,,,,,,,,,,,,,,,,,,,,,,,,,,,,,,26.026692975001424,26.02673827400031,26.026746962999823,26.02676638900084,,,,,,,559808\,001,2024-03-21_18h51.41.625,Test1,2023.2.3,None,2024-03-21 18h51.49.962923 -0300,
0,0,0,0,,,,,,,,,,,,,,,,,3,0,3,0,9,0,9,0,,,,,,,,,26.06072451900036,,,,,,,,,,,,,,,,,,,,,,,,,,,,,,,,,,,,,,,,,,26.026961123001456,26.027002374999938,26.027010599000278,26.027026662000935,,,,,,,559808\,001,2024-03-21_18h51.41.625,Test1,2023.2.3,None,2024-03-21 18h51.49.962923 -0300,
0,0,0,0,,,,,,,,,,,,,,,,,3,0,3,0,,,,,,,,,,,,,,,,,,,,,,,,,,,,,,,,,,,,,,,,,,,,,,,,,,,,,,,,,,,,,,,,,559808\,001,2024-03-21_18h51.41.625,Test1,2023.2.3,None,2024-03-21 18h51.49.962923 -0300,
0,0,0,0,,,,,,,,,,,,,,,,,4,0,4,0,0,0,0,0,,,,,,,,,26.06072451900036,,,,,,,,,,,,,,,,,,,,,,,,,,,,,,,,,,,,,,,,,,26.027728717001082,26.027775862001363,26.027784874000645,26.027801961001387,,,,,,,559808\,001,2024-03-21_18h51.41.625,Test1,2023.2.3,None,2024-03-21 18h51.49.962923 -0300,
0,0,0,0,,,,,,,,,,,,,,,,,4,0,4,0,1,0,1,0,,,,,,,,,26.06072451900036,,,,,,,,,,,,,,,,,,,,,,,,,,,,,,,,,,,,,,,,,,26.027985986000203,26.02802771500137,26.028036200001225,26.028052686000592,,,,,,,559808\,001,2024-03-21_18h51.41.625,Test1,2023.2.3,None,2024-03-21 18h51.49.962923 -0300,
0,0,0,0,,,,,,,,,,,,,,,,,4,0,4,0,2,0,2,0,,,,,,,,,26.06072451900036,,,,,,,,,,,,,,,,,,,,,,,,,,,,,,,,,,,,,,,,,,26.028236746000402,26.028278962001423,26.02828732600028,26.02830348000134,,,,,,,559808\,001,2024-03-21_18h51.41.625,Test1,2023.2.3,None,2024-03-21 18h51.49.962923 -0300,
0,0,0,0,,,,,,,,,,,,,,,,,4,0,4,0,3,0,3,0,,,,,,,,,26.06072451900036,,,,,,,,,,,,,,,,,,,,,,,,,,,,,,,,,,,,,,,,,,26.02848530099982,26.028527150001537,26.028535569999804,26.02855146500042,,,,,,,559808\,001,2024-03-21_18h51.41.625,Test1,2023.2.3,None,2024-03-21 18h51.49.962923 -0300,
0,0,0,0,,,,,,,,,,,,,,,,,4,0,4,0,4,0,4,0,,,,,,,,,26.06072451900036,,,,,,,,,,,,,,,,,,,,,,,,,,,,,,,,,,,,,,,,,,26.028726370001095,26.028770933000487,26.028779147000023,26.028795225000067,,,,,,,559808\,001,2024-03-21_18h51.41.625,Test1,2023.2.3,None,2024-03-21 18h51.49.962923 -0300,
0,0,0,0,,,,,,,,,,,,,,,,,4,0,4,0,5,0,5,0,,,,,,,,,26.06072451900036,,,,,,,,,,,,,,,,,,,,,,,,,,,,,,,,,,,,,,,,,,26.02898314000049,26.02902304500094,26.029031017000307,26.029046655001366,,,,,,,559808\,001,2024-03-21_18h51.41.625,Test1,2023.2.3,None,2024-03-21 18h51.49.962923 -0300,
0,0,0,0,,,,,,,,,,,,,,,,,4,0,4,0,6,0,6,0,,,,,,,,,26.06072451900036,,,,,,,,,,,,,,,,,,,,,,,,,,,,,,,,,,,,,,,,,,26.029220280001027,26.02926031700008,26.029268270000102,26.029283836000104,,,,,,,559808\,001,2024-03-21_18h51.41.625,Test1,2023.2.3,None,2024-03-21 18h51.49.962923 -0300,
0,0,0,0,,,,,,,,,,,,,,,,,4,0,4,0,7,0,7,0,,,,,,,,,26.06072451900036,,,,,,,,,,,,,,,,,,,,,,,,,,,,,,,,,,,,,,,,,,26.02945194899985,26.02949113000068,26.029498923000574,26.02951440600009,,,,,,,559808\,001,2024-03-21_18h51.41.625,Test1,2023.2.3,None,2024-03-21 18h51.49.962923 -0300,
0,0,0,0,,,,,,,,,,,,,,,,,4,0,4,0,8,0,8,0,,,,,,,,,26.06072451900036,,,,,,,,,,,,,,,,,,,,,,,,,,,,,,,,,,,,,,,,,,26.02969230600138,26.02973169500001,26.029742618000455,26.029758208000203,,,,,,,559808\,001,2024-03-21_18h51.41.625,Test1,2023.2.3,None,2024-03-21 18h51.49.962923 -0300,
0,0,0,0,,,,,,,,,,,,,,,,,4,0,4,0,9,0,9,0,,,,,,,,,26.06072451900036,,,,,,,,,,,,,,,,,,,,,,,,,,,,,,,,,,,,,,,,,,26.02994339900033,26.029981837000378,26.029989579999892,26.030004676000317,,,,,,,559808\,001,2024-03-21_18h51.41.625,Test1,2023.2.3,None,2024-03-21 18h51.49.962923 -0300,
0,0,0,0,,,,,,,,,,,,,,,,,4,0,4,0,,,,,,,,,,,,,,,,,,,,,,,,,,,,,,,,,,,,,,,,,,,,,,,,,,,,,,,,,,,,,,,,,559808\,001,2024-03-21_18h51.41.625,Test1,2023.2.3,None,2024-03-21 18h51.49.962923 -0300,
0,0,0,0,,,,,,,,,,,,,,,,,5,0,5,0,0,0,0,0,,,,,,,,,26.06072451900036,,,,,,,,,,,,,,,,,,,,,,,,,,,,,,,,,,,,,,,,,,26.030676657001095,26.030726045000847,26.03073475600104,26.030751505000808,,,,,,,559808\,001,2024-03-21_18h51.41.625,Test1,2023.2.3,None,2024-03-21 18h51.49.962923 -0300,
0,0,0,0,,,,,,,,,,,,,,,,,5,0,5,0,1,0,1,0,,,,,,,,,26.06072451900036,,,,,,,,,,,,,,,,,,,,,,,,,,,,,,,,,,,,,,,,,,26.030939100000978,26.030977678001364,26.03098536700054,26.031000394999865,,,,,,,559808\,001,2024-03-21_18h51.41.625,Test1,2023.2.3,None,2024-03-21 18h51.49.962923 -0300,
0,0,0,0,,,,,,,,,,,,,,,,,5,0,5,0,2,0,2,0,,,,,,,,,26.06072451900036,,,,,,,,,,,,,,,,,,,,,,,,,,,,,,,,,,,,,,,,,,26.031164527999863,26.031203361000735,26.031214066000757,26.03122963700116,,,,,,,559808\,001,2024-03-21_18h51.41.625,Test1,2023.2.3,None,2024-03-21 18h51.49.962923 -0300,
0,0,0,0,,,,,,,,,,,,,,,,,5,0,5,0,3,0,3,0,,,,,,,,,26.06072451900036,,,,,,,,,,,,,,,,,,,,,,,,,,,,,,,,,,,,,,,,,,26.031392003000292,26.031430232000275,26.031437839999853,26.031484741000895,,,,,,,559808\,001,2024-03-21_18h51.41.625,Test1,2023.2.3,None,2024-03-21 18h51.49.962923 -0300,
0,0,0,0,,,,,,,,,,,,,,,,,5,0,5,0,4,0,4,0,,,,,,,,,26.06072451900036,,,,,,,,,,,,,,,,,,,,,,,,,,,,,,,,,,,,,,,,,,26.031655873001,26.031694094001068,26.03170187000069,26.03171699900122,,,,,,,559808\,001,2024-03-21_18h51.41.625,Test1,2023.2.3,None,2024-03-21 18h51.49.962923 -0300,
0,0,0,0,,,,,,,,,,,,,,,,,5,0,5,0,5,0,5,0,,,,,,,,,26.06072451900036,,,,,,,,,,,,,,,,,,,,,,,,,,,,,,,,,,,,,,,,,,26.03201137399992,26.032057761000033,26.032072080000944,26.032088908001242,,,,,,,559808\,001,2024-03-21_18h51.41.625,Test1,2023.2.3,None,2024-03-21 18h51.49.962923 -0300,
0,0,0,0,,,,,,,,,,,,,,,,,5,0,5,0,6,0,6,0,,,,,,,,,26.06072451900036,,,,,,,,,,,,,,,,,,,,,,,,,,,,,,,,,,,,,,,,,,26.03226891000122,26.032312336999894,26.032320258000254,26.032335106001483,,,,,,,559808\,001,2024-03-21_18h51.41.625,Test1,2023.2.3,None,2024-03-21 18h51.49.962923 -0300,
0,0,0,0,,,,,,,,,,,,,,,,,5,0,5,0,7,0,7,0,,,,,,,,,26.06072451900036,,,,,,,,,,,,,,,,,,,,,,,,,,,,,,,,,,,,,,,,,,26.032507151001482,26.032547437000176,26.03255534500022,26.032570170000326,,,,,,,559808\,001,2024-03-21_18h51.41.625,Test1,2023.2.3,None,2024-03-21 18h51.49.962923 -0300,
0,0,0,0,,,,,,,,,,,,,,,,,5,0,5,0,8,0,8,0,,,,,,,,,26.06072451900036,,,,,,,,,,,,,,,,,,,,,,,,,,,,,,,,,,,,,,,,,,26.032732998000938,26.03277543100012,26.032785418001367,26.032800307000798,,,,,,,559808\,001,2024-03-21_18h51.41.625,Test1,2023.2.3,None,2024-03-21 18h51.49.962923 -0300,
0,0,0,0,,,,,,,,,,,,,,,,,5,0,5,0,9,0,9,0,,,,,,,,,26.06072451900036,,,,,,,,,,,,,,,,,,,,,,,,,,,,,,,,,,,,,,,,,,26.032972310000332,26.03301231000114,26.03301978700074,26.03303376400072,,,,,,,559808\,001,2024-03-21_18h51.41.625,Test1,2023.2.3,None,2024-03-21 18h51.49.962923 -0300,
0,0,0,0,,,,,,,,,,,,,,,,,5,0,5,0,,,,,,,,,,,,,,,,,,,,,,,,,,,,,,,,,,,,,,,,,,,,,,,,,,,,,,,,,,,,,,,,,559808\,001,2024-03-21_18h51.41.625,Test1,2023.2.3,None,2024-03-21 18h51.49.962923 -0300,
0,0,0,0,,,,,,,,,,,,,,,,,6,0,6,0,0,0,0,0,,,,,,,,,26.06072451900036,,,,,,,,,,,,,,,,,,,,,,,,,,,,,,,,,,,,,,,,,,26.0336920990012,26.033733700000084,26.033741655000995,26.03376072500032,,,,,,,559808\,001,2024-03-21_18h51.41.625,Test1,2023.2.3,None,2024-03-21 18h51.49.962923 -0300,
0,0,0,0,,,,,,,,,,,,,,,,,6,0,6,0,1,0,1,0,,,,,,,,,26.06072451900036,,,,,,,,,,,,,,,,,,,,,,,,,,,,,,,,,,,,,,,,,,26.033925169000213,26.033966127000895,26.033973872001297,26.033988124001553,,,,,,,559808\,001,2024-03-21_18h51.41.625,Test1,2023.2.3,None,2024-03-21 18h51.49.962923 -0300,
0,0,0,0,,,,,,,,,,,,,,,,,6,0,6,0,2,0,2,0,,,,,,,,,26.06072451900036,,,,,,,,,,,,,,,,,,,,,,,,,,,,,,,,,,,,,,,,,,26.03415508100079,26.034191920000012,26.034199262001493,26.03421333300139,,,,,,,559808\,001,2024-03-21_18h51.41.625,Test1,2023.2.3,None,2024-03-21 18h51.49.962923 -0300,
0,0,0,0,,,,,,,,,,,,,,,,,6,0,6,0,3,0,3,0,,,,,,,,,26.06072451900036,,,,,,,,,,,,,,,,,,,,,,,,,,,,,,,,,,,,,,,,,,26.034378011001536,26.034415920001265,26.03442345000076,26.03444165900146,,,,,,,559808\,001,2024-03-21_18h51.41.625,Test1,2023.2.3,None,2024-03-21 18h51.49.962923 -0300,
0,0,0,0,,,,,,,,,,,,,,,,,6,0,6,0,4,0,4,0,,,,,,,,,26.06072451900036,,,,,,,,,,,,,,,,,,,,,,,,,,,,,,,,,,,,,,,,,,26.034604207001394,26.034644493000087,26.034652129999813,26.034666719000597,,,,,,,559808\,001,2024-03-21_18h51.41.625,Test1,2023.2.3,None,2024-03-21 18h51.49.962923 -0300,
0,0,0,0,,,,,,,,,,,,,,,,,6,0,6,0,5,0,5,0,,,,,,,,,26.06072451900036,,,,,,,,,,,,,,,,,,,,,,,,,,,,,,,,,,,,,,,,,,26.034841317999962,26.03487767900151,26.034884755999883,26.03489881400128,,,,,,,559808\,001,2024-03-21_18h51.41.625,Test1,2023.2.3,None,2024-03-21 18h51.49.962923 -0300,
0,0,0,0,,,,,,,,,,,,,,,,,6,0,6,0,6,0,6,0,,,,,,,,,26.06072451900036,,,,,,,,,,,,,,,,,,,,,,,,,,,,,,,,,,,,,,,,,,26.035049940001045,26.03508967400012,26.03509688700069,26.035113769999953,,,,,,,559808\,001,2024-03-21_18h51.41.625,Test1,2023.2.3,None,2024-03-21 18h51.49.962923 -0300,
0,0,0,0,,,,,,,,,,,,,,,,,6,0,6,0,7,0,7,0,,,,,,,,,26.06072451900036,,,,,,,,,,,,,,,,,,,,,,,,,,,,,,,,,,,,,,,,,,26.03526507800052,26.03530358700118,26.03531080799985,26.03532503000133,,,,,,,559808\,001,2024-03-21_18h51.41.625,Test1,2023.2.3,None,2024-03-21 18h51.49.962923 -0300,
0,0,0,0,,,,,,,,,,,,,,,,,6,0,6,0,8,0,8,0,,,,,,,,,26.06072451900036,,,,,,,,,,,,,,,,,,,,,,,,,,,,,,,,,,,,,,,,,,26.035478301000694,26.03551684500053,26.035523973001546,26.035538124000595,,,,,,,559808\,001,2024-03-21_18h51.41.625,Test1,2023.2.3,None,2024-03-21 18h51.49.962923 -0300,
0,0,0,0,,,,,,,,,,,,,,,,,6,0,6,0,9,0,9,0,,,,,,,,,26.06072451900036,,,,,,,,,,,,,,,,,,,,,,,,,,,,,,,,,,,,,,,,,,26.03584176700133,26.035889838000003,26.03589851600009,26.035919096000725,,,,,,,559808\,001,2024-03-21_18h51.41.625,Test1,2023.2.3,None,2024-03-21 18h51.49.962923 -0300,
0,0,0,0,,,,,,,,,,,,,,,,,6,0,6,0,,,,,,,,,,,,,,,,,,,,,,,,,,,,,,,,,,,,,,,,,,,,,,,,,,,,,,,,,,,,,,,,,559808\,001,2024-03-21_18h51.41.625,Test1,2023.2.3,None,2024-03-21 18h51.49.962923 -0300,
0,0,0,0,,,,,,,,,,,,,,,,,7,0,7,0,0,0,0,0,,,,,,,,,26.06072451900036,,,,,,,,,,,,,,,,,,,,,,,,,,,,,,,,,,,,,,,,,,26.036698818999866,26.036751409001226,26.036760595001397,26.036775612999918,,,,,,,559808\,001,2024-03-21_18h51.41.625,Test1,2023.2.3,None,2024-03-21 18h51.49.962923 -0300,
0,0,0,0,,,,,,,,,,,,,,,,,7,0,7,0,1,0,1,0,,,,,,,,,26.06072451900036,,,,,,,,,,,,,,,,,,,,,,,,,,,,,,,,,,,,,,,,,,26.036944326000594,26.03698117300155,26.03698841700134,26.037006280999776,,,,,,,559808\,001,2024-03-21_18h51.41.625,Test1,2023.2.3,None,2024-03-21 18h51.49.962923 -0300,
0,0,0,0,,,,,,,,,,,,,,,,,7,0,7,0,2,0,2,0,,,,,,,,,26.06072451900036,,,,,,,,,,,,,,,,,,,,,,,,,,,,,,,,,,,,,,,,,,26.03716078100115,26.037196619001406,26.03720376400088,26.037217243001578,,,,,,,559808\,001,2024-03-21_18h51.41.625,Test1,2023.2.3,None,2024-03-21 18h51.49.962923 -0300,
0,0,0,0,,,,,,,,,,,,,,,,,7,0,7,0,3,0,3,0,,,,,,,,,26.06072451900036,,,,,,,,,,,,,,,,,,,,,,,,,,,,,,,,,,,,,,,,,,26.037372845999926,26.037411971001347,26.037419140000566,26.037433298000906,,,,,,,559808\,001,2024-03-21_18h51.41.625,Test1,2023.2.3,None,2024-03-21 18h51.49.962923 -0300,
0,0,0,0,,,,,,,,,,,,,,,,,7,0,7,0,4,0,4,0,,,,,,,,,26.06072451900036,,,,,,,,,,,,,,,,,,,,,,,,,,,,,,,,,,,,,,,,,,26.037589270001263,26.037624702999892,26.037631805000274,26.037648582001566,,,,,,,559808\,001,2024-03-21_18h51.41.625,Test1,2023.2.3,None,2024-03-21 18h51.49.962923 -0300,
0,0,0,0,,,,,,,,,,,,,,,,,7,0,7,0,5,0,5,0,,,,,,,,,26.06072451900036,,,,,,,,,,,,,,,,,,,,,,,,,,,,,,,,,,,,,,,,,,26.037799519001055,26.037836491001144,26.03784368000015,26.03787057000045,,,,,,,559808\,001,2024-03-21_18h51.41.625,Test1,2023.2.3,None,2024-03-21 18h51.49.962923 -0300,
0,0,0,0,,,,,,,,,,,,,,,,,7,0,7,0,6,0,6,0,,,,,,,,,26.06072451900036,,,,,,,,,,,,,,,,,,,,,,,,,,,,,,,,,,,,,,,,,,26.038023826000426,26.03805827799988,26.03806510600043,26.038078699000835,,,,,,,559808\,001,2024-03-21_18h51.41.625,Test1,2023.2.3,None,2024-03-21 18h51.49.962923 -0300,
0,0,0,0,,,,,,,,,,,,,,,,,7,0,7,0,7,0,7,0,,,,,,,,,26.06072451900036,,,,,,,,,,,,,,,,,,,,,,,,,,,,,,,,,,,,,,,,,,26.038224345000344,26.0382615540002,26.038268483000138,26.038284492000457,,,,,,,559808\,001,2024-03-21_18h51.41.625,Test1,2023.2.3,None,2024-03-21 18h51.49.962923 -0300,
0,0,0,0,,,,,,,,,,,,,,,,,7,0,7,0,8,0,8,0,,,,,,,,,26.06072451900036,,,,,,,,,,,,,,,,,,,,,,,,,,,,,,,,,,,,,,,,,,26.038430436999988,26.038463382999907,26.038470127001347,26.038483469999846,,,,,,,559808\,001,2024-03-21_18h51.41.625,Test1,2023.2.3,None,2024-03-21 18h51.49.962923 -0300,
0,0,0,0,,,,,,,,,,,,,,,,,7,0,7,0,9,0,9,0,,,,,,,,,26.06072451900036,,,,,,,,,,,,,,,,,,,,,,,,,,,,,,,,,,,,,,,,,,26.03863195700069,26.03866561200084,26.038672386001053,26.03868592500112,,,,,,,559808\,001,2024-03-21_18h51.41.625,Test1,2023.2.3,None,2024-03-21 18h51.49.962923 -0300,
0,0,0,0,,,,,,,,,,,,,,,,,7,0,7,0,,,,,,,,,,,,,,,,,,,,,,,,,,,,,,,,,,,,,,,,,,,,,,,,,,,,,,,,,,,,,,,,,559808\,001,2024-03-21_18h51.41.625,Test1,2023.2.3,None,2024-03-21 18h51.49.962923 -0300,
0,0,0,0,,,,,,,,,,,,,,,,,8,0,8,0,0,0,0,0,,,,,,,,,26.06072451900036,,,,,,,,,,,,,,,,,,,,,,,,,,,,,,,,,,,,,,,,,,26.039340933000858,26.03938061200097,26.039388087001498,26.039402205000442,,,,,,,559808\,001,2024-03-21_18h51.41.625,Test1,2023.2.3,None,2024-03-21 18h51.49.962923 -0300,
0,0,0,0,,,,,,,,,,,,,,,,,8,0,8,0,1,0,1,0,,,,,,,,,26.06072451900036,,,,,,,,,,,,,,,,,,,,,,,,,,,,,,,,,,,,,,,,,,26.03955629400116,26.039595232001375,26.039602178001587,26.039615937001145,,,,,,,559808\,001,2024-03-21_18h51.41.625,Test1,2023.2.3,None,2024-03-21 18h51.49.962923 -0300,
0,0,0,0,,,,,,,,,,,,,,,,,8,0,8,0,2,0,2,0,,,,,,,,,26.06072451900036,,,,,,,,,,,,,,,,,,,,,,,,,,,,,,,,,,,,,,,,,,26.039766709000105,26.03980142399996,26.039808350000385,26.039835450999817,,,,,,,559808\,001,2024-03-21_18h51.41.625,Test1,2023.2.3,None,2024-03-21 18h51.49.962923 -0300,
0,0,0,0,,,,,,,,,,,,,,,,,8,0,8,0,3,0,3,0,,,,,,,,,26.06072451900036,,,,,,,,,,,,,,,,,,,,,,,,,,,,,,,,,,,,,,,,,,26.03998256000159,26.04001854800117,26.040025350001088,26.0400788930001,,,,,,,559808\,001,2024-03-21_18h51.41.625,Test1,2023.2.3,None,2024-03-21 18h51.49.962923 -0300,
0,0,0,0,,,,,,,,,,,,,,,,,8,0,8,0,4,0,4,0,,,,,,,,,26.06072451900036,,,,,,,,,,,,,,,,,,,,,,,,,,,,,,,,,,,,,,,,,,26.04022873500071,26.040262811000503,26.040269692000948,26.040283035001266,,,,,,,559808\,001,2024-03-21_18h51.41.625,Test1,2023.2.3,None,2024-03-21 18h51.49.962923 -0300,
0,0,0,0,,,,,,,,,,,,,,,,,8,0,8,0,5,0,5,0,,,,,,,,,26.06072451900036,,,,,,,,,,,,,,,,,,,,,,,,,,,,,,,,,,,,,,,,,,26.040426794001178,26.04045991300154,26.040466705000654,26.040482778000296,,,,,,,559808\,001,2024-03-21_18h51.41.625,Test1,2023.2.3,None,2024-03-21 18h51.49.962923 -0300,
0,0,0,0,,,,,,,,,,,,,,,,,8,0,8,0,6,0,6,0,,,,,,,,,26.06072451900036,,,,,,,,,,,,,,,,,,,,,,,,,,,,,,,,,,,,,,,,,,26.040627747001054,26.04066618700017,26.04067306700017,26.04068625200125,,,,,,,559808\,001,2024-03-21_18h51.41.625,Test1,2023.2.3,None,2024-03-21 18h51.49.962923 -0300,
0,0,0,0,,,,,,,,,,,,,,,,,8,0,8,0,7,0,7,0,,,,,,,,,26.06072451900036,,,,,,,,,,,,,,,,,,,,,,,,,,,,,,,,,,,,,,,,,,26.040831946000253,26.04087766200064,26.040884206000555,26.040896829999838,,,,,,,559808\,001,2024-03-21_18h51.41.625,Test1,2023.2.3,None,2024-03-21 18h51.49.962923 -0300,
0,0,0,0,,,,,,,,,,,,,,,,,8,0,8,0,8,0,8,0,,,,,,,,,26.06072451900036,,,,,,,,,,,,,,,,,,,,,,,,,,,,,,,,,,,,,,,,,,26.04103419800049,26.04106619400045,26.04107294000096,26.041085972001383,,,,,,,559808\,001,2024-03-21_18h51.41.625,Test1,2023.2.3,None,2024-03-21 18h51.49.962923 -0300,
0,0,0,0,,,,,,,,,,,,,,,,,8,0,8,0,9,0,9,0,,,,,,,,,26.06072451900036,,,,,,,,,,,,,,,,,,,,,,,,,,,,,,,,,,,,,,,,,,26.04122937700049,26.04126498000005,26.041271580001194,26.041284329001428,,,,,,,559808\,001,2024-03-21_18h51.41.625,Test1,2023.2.3,None,2024-03-21 18h51.49.962923 -0300,
0,0,0,0,,,,,,,,,,,,,,,,,8,0,8,0,,,,,,,,,,,,,,,,,,,,,,,,,,,,,,,,,,,,,,,,,,,,,,,,,,,,,,,,,,,,,,,,,559808\,001,2024-03-21_18h51.41.625,Test1,2023.2.3,None,2024-03-21 18h51.49.962923 -0300,
0,0,0,0,,,,,,,,,,,,,,,,,9,0,9,0,0,0,0,0,,,,,,,,,26.06072451900036,,,,,,,,,,,,,,,,,,,,,,,,,,,,,,,,,,,,,,,,,,26.041912510001566,26.041950906001148,26.04195813500155,26.041971706001277,,,,,,,559808\,001,2024-03-21_18h51.41.625,Test1,2023.2.3,None,2024-03-21 18h51.49.962923 -0300,
0,0,0,0,,,,,,,,,,,,,,,,,9,0,9,0,1,0,1,0,,,,,,,,,26.06072451900036,,,,,,,,,,,,,,,,,,,,,,,,,,,,,,,,,,,,,,,,,,26.042136056001254,26.042172014000244,26.042178684001556,26.042191586000627,,,,,,,559808\,001,2024-03-21_18h51.41.625,Test1,2023.2.3,None,2024-03-21 18h51.49.962923 -0300,
0,0,0,0,,,,,,,,,,,,,,,,,9,0,9,0,2,0,2,0,,,,,,,,,26.06072451900036,,,,,,,,,,,,,,,,,,,,,,,,,,,,,,,,,,,,,,,,,,26.04233074700096,26.0423681379998,26.0423747320001,26.042387515000883,,,,,,,559808\,001,2024-03-21_18h51.41.625,Test1,2023.2.3,None,2024-03-21 18h51.49.962923 -0300,
0,0,0,0,,,,,,,,,,,,,,,,,9,0,9,0,3,0,3,0,,,,,,,,,26.06072451900036,,,,,,,,,,,,,,,,,,,,,,,,,,,,,,,,,,,,,,,,,,26.04252487800113,26.04255757000101,26.042563840001094,26.04257637200135,,,,,,,559808\,001,2024-03-21_18h51.41.625,Test1,2023.2.3,None,2024-03-21 18h51.49.962923 -0300,
0,0,0,0,,,,,,,,,,,,,,,,,9,0,9,0,4,0,4,0,,,,,,,,,26.06072451900036,,,,,,,,,,,,,,,,,,,,,,,,,,,,,,,,,,,,,,,,,,26.042718439000964,26.042750465001518,26.042756789000123,26.042769244000738,,,,,,,559808\,001,2024-03-21_18h51.41.625,Test1,2023.2.3,None,2024-03-21 18h51.49.962923 -0300,
0,0,0,0,,,,,,,,,,,,,,,,,9,0,9,0,5,0,5,0,,,,,,,,,26.06072451900036,,,,,,,,,,,,,,,,,,,,,,,,,,,,,,,,,,,,,,,,,,26.04290549400139,26.04294028300137,26.042946622001182,26.04296115699981,,,,,,,559808\,001,2024-03-21_18h51.41.625,Test1,2023.2.3,None,2024-03-21 18h51.49.962923 -0300,
0,0,0,0,,,,,,,,,,,,,,,,,9,0,9,0,6,0,6,0,,,,,,,,,26.06072451900036,,,,,,,,,,,,,,,,,,,,,,,,,,,,,,,,,,,,,,,,,,26.043098177000502,26.04312963800112,26.043135951000295,26.043166455001483,,,,,,,559808\,001,2024-03-21_18h51.41.625,Test1,2023.2.3,None,2024-03-21 18h51.49.962923 -0300,
0,0,0,0,,,,,,,,,,,,,,,,,9,0,9,0,7,0,7,0,,,,,,,,,26.06072451900036,,,,,,,,,,,,,,,,,,,,,,,,,,,,,,,,,,,,,,,,,,26.043325545000698,26.043359579000025,26.043366058000174,26.043378725000366,,,,,,,559808\,001,2024-03-21_18h51.41.625,Test1,2023.2.3,None,2024-03-21 18h51.49.962923 -0300,
0,0,0,0,,,,,,,,,,,,,,,,,9,0,9,0,8,0,8,0,,,,,,,,,26.06072451900036,,,,,,,,,,,,,,,,,,,,,,,,,,,,,,,,,,,,,,,,,,26.043513964999875,26.043549478001296,26.043555828000535,26.043570468000325,,,,,,,559808\,001,2024-03-21_18h51.41.625,Test1,2023.2.3,None,2024-03-21 18h51.49.962923 -0300,
0,0,0,0,,,,,,,,,,,,,,,,,9,0,9,0,9,0,9,0,,,,,,,,,26.06072451900036,,,,,,,,,,,,,,,,,,,,,,,,,,,,,,,,,,,,,,,,,,26.043705953001336,26.043737414000134,26.043743796000854,26.04375617000005,,,,,,,559808\,001,2024-03-21_18h51.41.625,Test1,2023.2.3,None,2024-03-21 18h51.49.962923 -0300,
0,0,0,0,,,,,,,,,,,,,,,,,9,0,9,0,,,,,,,,,,,,,,,,,,,,,,,,,,,,,,,,,,,,,,,,,,,,,,,,,,,,,,,,,,,,,,,,,559808\,001,2024-03-21_18h51.41.625,Test1,2023.2.3,None,2024-03-21 18h51.49.962923 -0300,
0,0,0,0,,,,,,,,,,,,,,,,,,,,,,,,,0,0,0,0,0,0,0,0,26.06072451900036,,,,,,,,,,,,,,,,,,,,,,,,,,,,,,,,,,,,,,,,,,,,,,26.04442692200064,26.04449102699982,26.044498458000817,26.046314355000504,,,559808\,001,2024-03-21_18h51.41.625,Test1,2023.2.3,None,2024-03-21 18h51.49.962923 -0300,
0,0,0,0,,,,,,,,,,,,,,,,,,,,,,,,,0,0,0,0,,,,,,,,,,,,,,,,,,,,,,,,,,,,,,,,,,,,,,,,,,,,,,,,,,,,,,,,,559808\,001,2024-03-21_18h51.41.625,Test1,2023.2.3,None,2024-03-21 18h51.49.962923 -0300,
0,0,0,0,,,,,,,,,,,,,,,,,,,,,,,,,,,,,,,,,,,,,,,,,,,,,,,,,,,,,,,,,,,,,,,,,,,,,,,,,,,,,,,,,,,26.04639927000062,26.04687279100108,559808\,001,2024-03-21_18h51.41.625,Test1,2023.2.3,None,2024-03-21 18h51.49.962923 -0300,
1,0,1,0,0,0,0,0,0,0,0,0,,,,,,,,,,,,,,,,,,,,,,,,,36.080326605000664,,,,,,26.04709536700102,26.06072451900036,26.06072451900036,26.06072451900036,26.06072451900036,26.06072451900036,36.048135570999875,0,,,0,,,0,,,2,"[1.1764849419996608, 5.801946636998764]","[1.2935861479982123, 5.996181361999334]",36.049952635999944,36.04999170800147,36.05000245300107,36.05001705799987,,,,,,,,,,,,,,,,,,,,,,,,559808\,001,2024-03-21_18h51.41.625,Test1,2023.2.3,None,2024-03-21 18h51.49.962923 -0300,
1,0,1,0,0,0,0,0,1,0,1,0,,,,,,,,,,,,,,,,,,,,,,,,,36.080326605000664,,,,,,,,,,,,,,,,,,,,,,,,,36.05017746900012,36.05020156400133,36.0502082740004,36.050221044000864,,,,,,,,,,,,,,,,,,,,,,,,559808\,001,2024-03-21_18h51.41.625,Test1,2023.2.3,None,2024-03-21 18h51.49.962923 -0300,
1,0,1,0,0,0,0,0,2,0,2,0,,,,,,,,,,,,,,,,,,,,,,,,,36.080326605000664,,,,,,,,,,,,,,,,,,,,,,,,,36.050369614000374,36.05039263800063,36.050399109000864,36.05041155500112,,,,,,,,,,,,,,,,,,,,,,,,559808\,001,2024-03-21_18h51.41.625,Test1,2023.2.3,None,2024-03-21 18h51.49.962923 -0300,
1,0,1,0,0,0,0,0,3,0,3,0,,,,,,,,,,,,,,,,,,,,,,,,,36.080326605000664,,,,,,,,,,,,,,,,,,,,,,,,,36.05055662199993,36.05058658000053,36.050593147001564,36.05060552699979,,,,,,,,,,,,,,,,,,,,,,,,559808\,001,2024-03-21_18h51.41.625,Test1,2023.2.3,None,2024-03-21 18h51.49.962923 -0300,
1,0,1,0,0,0,0,0,4,0,4,0,,,,,,,,,,,,,,,,,,,,,,,,,36.080326605000664,,,,,,,,,,,,,,,,,,,,,,,,,36.05079537800157,36.05082035900159,36.050826900000175,36.05083996299982,,,,,,,,,,,,,,,,,,,,,,,,559808\,001,2024-03-21_18h51.41.625,Test1,2023.2.3,None,2024-03-21 18h51.49.962923 -0300,
1,0,1,0,0,0,0,0,5,0,5,0,,,,,,,,,,,,,,,,,,,,,,,,,36.080326605000664,,,,,,,,,,,,,,,,,,,,,,,,,36.050984475001314,36.051006857000175,36.051013256999795,36.051025512000706,,,,,,,,,,,,,,,,,,,,,,,,559808\,001,2024-03-21_18h51.41.625,Test1,2023.2.3,None,2024-03-21 18h51.49.962923 -0300,
1,0,1,0,0,0,0,0,6,0,6,0,,,,,,,,,,,,,,,,,,,,,,,,,36.080326605000664,,,,,,,,,,,,,,,,,,,,,,,,,36.05116748799992,36.05118971500087,36.051195957001255,36.05120888700003,,,,,,,,,,,,,,,,,,,,,,,,559808\,001,2024-03-21_18h51.41.625,Test1,2023.2.3,None,2024-03-21 18h51.49.962923 -0300,
1,0,1,0,0,0,0,0,7,0,7,0,,,,,,,,,,,,,,,,,,,,,,,,,36.080326605000664,,,,,,,,,,,,,,,,,,,,,,,,,36.051352036000026,36.05137394600024,36.05138039099984,36.05139329300073,,,,,,,,,,,,,,,,,,,,,,,,559808\,001,2024-03-21_18h51.41.625,Test1,2023.2.3,None,2024-03-21 18h51.49.962923 -0300,
1,0,1,0,0,0,0,0,8,0,8,0,,,,,,,,,,,,,,,,,,,,,,,,,36.080326605000664,,,,,,,,,,,,,,,,,,,,,,,,,36.05153612700087,36.05155800800094,36.05156457800149,36.05157711799984,,,,,,,,,,,,,,,,,,,,,,,,559808\,001,2024-03-21_18h51.41.625,Test1,2023.2.3,None,2024-03-21 18h51.49.962923 -0300,
1,0,1,0,0,0,0,0,9,0,9,0,,,,,,,,,,,,,,,,,,,,,,,,,36.080326605000664,,,,,,,,,,,,,,,,,,,,,,,,,36.051720311999816,36.05174110900043,36.0517472570009,36.0517588950006,,,,,,,,,,,,,,,,,,,,,,,,559808\,001,2024-03-21_18h51.41.625,Test1,2023.2.3,None,2024-03-21 18h51.49.962923 -0300,
1,0,1,0,0,0,0,0,,,,,,,,,,,,,,,,,,,,,,,,,,,,,,,,,,,,,,,,,,,,,,,,,,,,,,,,,,,,,,,,,,,,,,,,,,,,,,,,,559808\,001,2024-03-21_18h51.41.625,Test1,2023.2.3,None,2024-03-21 18h51.49.962923 -0300,
1,0,1,0,1,0,1,0,0,0,0,0,,,,,,,,,,,,,,,,,,,,,,,,,36.080326605000664,,,,,,,,,,,,,,,,,,,,,,,,,36.05231590600124,36.052341927999805,36.052348877999975,36.05236272100046,,,,,,,,,,,,,,,,,,,,,,,,559808\,001,2024-03-21_18h51.41.625,Test1,2023.2.3,None,2024-03-21 18h51.49.962923 -0300,
1,0,1,0,1,0,1,0,1,0,1,0,,,,,,,,,,,,,,,,,,,,,,,,,36.080326605000664,,,,,,,,,,,,,,,,,,,,,,,,,36.05250968300061,36.05253242300023,36.052538855999956,36.05255115300133,,,,,,,,,,,,,,,,,,,,,,,,559808\,001,2024-03-21_18h51.41.625,Test1,2023.2.3,None,2024-03-21 18h51.49.962923 -0300,
1,0,1,0,1,0,1,0,2,0,2,0,,,,,,,,,,,,,,,,,,,,,,,,,36.080326605000664,,,,,,,,,,,,,,,,,,,,,,,,,36.052694763000545,36.05271650600116,36.05272295699979,36.05273488400053,,,,,,,,,,,,,,,,,,,,,,,,559808\,001,2024-03-21_18h51.41.625,Test1,2023.2.3,None,2024-03-21 18h51.49.962923 -0300,
1,0,1,0,1,0,1,0,3,0,3,0,,,,,,,,,,,,,,,,,,,,,,,,,36.080326605000664,,,,,,,,,,,,,,,,,,,,,,,,,36.05287708800097,36.052899064001394,36.05290543400042,36.052917748000255,,,,,,,,,,,,,,,,,,,,,,,,559808\,001,2024-03-21_18h51.41.625,Test1,2023.2.3,None,2024-03-21 18h51.49.962923 -0300,
1,0,1,0,1,0,1,0,4,0,4,0,,,,,,,,,,,,,,,,,,,,,,,,,36.080326605000664,,,,,,,,,,,,,,,,,,,,,,,,,36.05307290300152,36.05309498000133,36.053101276000234,36.05311368300136,,,,,,,,,,,,,,,,,,,,,,,,559808\,001,2024-03-21_18h51.41.625,Test1,2023.2.3,None,2024-03-21 18h51.49.962923 -0300,
1,0,1,0,1,0,1,0,5,0,5,0,,,,,,,,,,,,,,,,,,,,,,,,,36.080326605000664,,,,,,,,,,,,,,,,,,,,,,,,,36.05333970200081,36.05337749800128,36.05338524000035,36.05339939199985,,,,,,,,,,,,,,,,,,,,,,,,559808\,001,2024-03-21_18h51.41.625,Test1,2023.2.3,None,2024-03-21 18h51.49.962923 -0300,
1,0,1,0,1,0,1,0,6,0,6,0,,,,,,,,,,,,,,,,,,,,,,,,,36.080326605000664,,,,,,,,,,,,,,,,,,,,,,,,,36.05358337800135,36.053607248000844,36.053613856000084,36.05362636300015,,,,,,,,,,,,,,,,,,,,,,,,559808\,001,2024-03-21_18h51.41.625,Test1,2023.2.3,None,2024-03-21 18h51.49.962923 -0300,
1,0,1,0,1,0,1,0,7,0,7,0,,,,,,,,,,,,,,,,,,,,,,,,,36.080326605000664,,,,,,,,,,,,,,,,,,,,,,,,,36.05379925499983,36.053821827999855,36.05382828600159,36.053840786000364,,,,,,,,,,,,,,,,,,,,,,,,559808\,001,2024-03-21_18h51.41.625,Test1,2023.2.3,None,2024-03-21 18h51.49.962923 -0300,
1,0,1,0,1,0,1,0,8,0,8,0,,,,,,,,,,,,,,,,,,,,,,,,,36.080326605000664,,,,,,,,,,,,,,,,,,,,,,,,,36.053987625000445,36.05401001700011,36.054016217000026,36.054028047999964,,,,,,,,,,,,,,,,,,,,,,,,559808\,001,2024-03-21_18h51.41.625,Test1,2023.2.3,None,2024-03-21 18h51.49.962923 -0300,
1,0,1,0,1,0,1,0,9,0,9,0,,,,,,,,,,,,,,,,,,,,,,,,,36.080326605000664,,,,,,,,,,,,,,,,,,,,,,,,,36.05417730100089,36.054200073000175,36.05420637300085,36.0542183280013,,,,,,,,,,,,,,,,,,,,,,,,559808\,001,2024-03-21_18h51.41.625,Test1,2023.2.3,None,2024-03-21 18h51.49.962923 -0300,
1,0,1,0,1,0,1,0,,,,,,,,,,,,,,,,,,,,,,,,,,,,,,,,,,,,,,,,,,,,,,,,,,,,,,,,,,,,,,,,,,,,,,,,,,,,,,,,,559808\,001,2024-03-21_18h51.41.625,Test1,2023.2.3,None,2024-03-21 18h51.49.962923 -0300,
1,0,1,0,2,0,2,0,0,0,0,0,,,,,,,,,,,,,,,,,,,,,,,,,36.080326605000664,,,,,,,,,,,,,,,,,,,,,,,,,36.0547933050002,36.054819517001306,36.05482615400069,36.05483875200116,,,,,,,,,,,,,,,,,,,,,,,,559808\,001,2024-03-21_18h51.41.625,Test1,2023.2.3,None,2024-03-21 18h51.49.962923 -0300,
1,0,1,0,2,0,2,0,1,0,1,0,,,,,,,,,,,,,,,,,,,,,,,,,36.080326605000664,,,,,,,,,,,,,,,,,,,,,,,,,36.054986918001305,36.055009187000906,36.05501563500002,36.05511968800056,,,,,,,,,,,,,,,,,,,,,,,,559808\,001,2024-03-21_18h51.41.625,Test1,2023.2.3,None,2024-03-21 18h51.49.962923 -0300,
1,0,1,0,2,0,2,0,2,0,2,0,,,,,,,,,,,,,,,,,,,,,,,,,36.080326605000664,,,,,,,,,,,,,,,,,,,,,,,,,36.055270199000006,36.055292769000516,36.05529915000079,36.0553118530006,,,,,,,,,,,,,,,,,,,,,,,,559808\,001,2024-03-21_18h51.41.625,Test1,2023.2.3,None,2024-03-21 18h51.49.962923 -0300,
1,0,1,0,2,0,2,0,3,0,3,0,,,,,,,,,,,,,,,,,,,,,,,,,36.080326605000664,,,,,,,,,,,,,,,,,,,,,,,,,36.055454614001064,36.055476591000115,36.05548287700003,36.0554960770005,,,,,,,,,,,,,,,,,,,,,,,,559808\,001,2024-03-21_18h51.41.625,Test1,2023.2.3,None,2024-03-21 18h51.49.962923 -0300,
1,0,1,0,2,0,2,0,4,0,4,0,,,,,,,,,,,,,,,,,,,,,,,,,36.080326605000664,,,,,,,,,,,,,,,,,,,,,,,,,36.055638468000325,36.05565943900001,36.055665673000476,36.055678686001556,,,,,,,,,,,,,,,,,,,,,,,,559808\,001,2024-03-21_18h51.41.625,Test1,2023.2.3,None,2024-03-21 18h51.49.962923 -0300,
1,0,1,0,2,0,2,0,5,0,5,0,,,,,,,,,,,,,,,,,,,,,,,,,36.080326605000664,,,,,,,,,,,,,,,,,,,,,,,,,36.055825622001066,36.05584649800039,36.055852799001514,36.05586491000031,,,,,,,,,,,,,,,,,,,,,,,,559808\,001,2024-03-21_18h51.41.625,Test1,2023.2.3,None,2024-03-21 18h51.49.962923 -0300,
1,0,1,0,2,0,2,0,6,0,6,0,,,,,,,,,,,,,,,,,,,,,,,,,36.080326605000664,,,,,,,,,,,,,,,,,,,,,,,,,36.05600507800045,36.056026199999906,36.05603233900001,36.056044262000796,,,,,,,,,,,,,,,,,,,,,,,,559808\,001,2024-03-21_18h51.41.625,Test1,2023.2.3,None,2024-03-21 18h51.49.962923 -0300,
1,0,1,0,2,0,2,0,7,0,7,0,,,,,,,,,,,,,,,,,,,,,,,,,36.080326605000664,,,,,,,,,,,,,,,,,,,,,,,,,36.056183132001024,36.05620417300088,36.056210432001535,36.056222242999866,,,,,,,,,,,,,,,,,,,,,,,,559808\,001,2024-03-21_18h51.41.625,Test1,2023.2.3,None,2024-03-21 18h51.49.962923 -0300,
1,0,1,0,2,0,2,0,8,0,8,0,,,,,,,,,,,,,,,,,,,,,,,,,36.080326605000664,,,,,,,,,,,,,,,,,,,,,,,,,36.05636127100115,36.0563823020002,36.05638832900149,36.05640055200092,,,,,,,,,,,,,,,,,,,,,,,,559808\,001,2024-03-21_18h51.41.625,Test1,2023.2.3,None,2024-03-21 18h51.49.962923 -0300,
1,0,1,0,2,0,2,0,9,0,9,0,,,,,,,,,,,,,,,,,,,,,,,,,36.080326605000664,,,,,,,,,,,,,,,,,,,,,,,,,36.056582272000014,36.05660409200027,36.056610372999785,36.056622293001055,,,,,,,,,,,,,,,,,,,,,,,,559808\,001,2024-03-21_18h51.41.625,Test1,2023.2.3,None,2024-03-21 18h51.49.962923 -0300,
1,0,1,0,2,0,2,0,,,,,,,,,,,,,,,,,,,,,,,,,,,,,,,,,,,,,,,,,,,,,,,,,,,,,,,,,,,,,,,,,,,,,,,,,,,,,,,,,559808\,001,2024-03-21_18h51.41.625,Test1,2023.2.3,None,2024-03-21 18h51.49.962923 -0300,
1,0,1,0,3,0,3,0,0,0,0,0,,,,,,,,,,,,,,,,,,,,,,,,,36.080326605000664,,,,,,,,,,,,,,,,,,,,,,,,,36.05713839800046,36.05716299500091,36.05716967599983,36.05718224300108,,,,,,,,,,,,,,,,,,,,,,,,559808\,001,2024-03-21_18h51.41.625,Test1,2023.2.3,None,2024-03-21 18h51.49.962923 -0300,
1,0,1,0,3,0,3,0,1,0,1,0,,,,,,,,,,,,,,,,,,,,,,,,,36.080326605000664,,,,,,,,,,,,,,,,,,,,,,,,,36.05732936900131,36.05735559900131,36.05736226699992,36.057375015001526,,,,,,,,,,,,,,,,,,,,,,,,559808\,001,2024-03-21_18h51.41.625,Test1,2023.2.3,None,2024-03-21 18h51.49.962923 -0300,
1,0,1,0,3,0,3,0,2,0,2,0,,,,,,,,,,,,,,,,,,,,,,,,,36.080326605000664,,,,,,,,,,,,,,,,,,,,,,,,,36.05752191800093,36.05754413100112,36.057550633000574,36.057562709000194,,,,,,,,,,,,,,,,,,,,,,,,559808\,001,2024-03-21_18h51.41.625,Test1,2023.2.3,None,2024-03-21 18h51.49.962923 -0300,
1,0,1,0,3,0,3,0,3,0,3,0,,,,,,,,,,,,,,,,,,,,,,,,,36.080326605000664,,,,,,,,,,,,,,,,,,,,,,,,,36.0577091640007,36.05773012100144,36.05773638500068,36.05774824400032,,,,,,,,,,,,,,,,,,,,,,,,559808\,001,2024-03-21_18h51.41.625,Test1,2023.2.3,None,2024-03-21 18h51.49.962923 -0300,
1,0,1,0,3,0,3,0,4,0,4,0,,,,,,,,,,,,,,,,,,,,,,,,,36.080326605000664,,,,,,,,,,,,,,,,,,,,,,,,,36.057892836000974,36.057913618000384,36.05791985900032,36.05793190300028,,,,,,,,,,,,,,,,,,,,,,,,559808\,001,2024-03-21_18h51.41.625,Test1,2023.2.3,None,2024-03-21 18h51.49.962923 -0300,
1,0,1,0,3,0,3,0,5,0,5,0,,,,,,,,,,,,,,,,,,,,,,,,,36.080326605000664,,,,,,,,,,,,,,,,,,,,,,,,,36.05807506700148,36.0581006350003,36.05810702300005,36.058119003000684,,,,,,,,,,,,,,,,,,,,,,,,559808\,001,2024-03-21_18h51.41.625,Test1,2023.2.3,None,2024-03-21 18h51.49.962923 -0300,
1,0,1,0,3,0,3,0,6,0,6,0,,,,,,,,,,,,,,,,,,,,,,,,,36.080326605000664,,,,,,,,,,,,,,,,,,,,,,,,,36.05825803300104,36.058279116999984,36.058285393000915,36.05829727700075,,,,,,,,,,,,,,,,,,,,,,,,559808\,001,2024-03-21_18h51.41.625,Test1,2023.2.3,None,2024-03-21 18h51.49.962923 -0300,
1,0,1,0,3,0,3,0,7,0,7,0,,,,,,,,,,,,,,,,,,,,,,,,,36.080326605000664,,,,,,,,,,,,,,,,,,,,,,,,,36.05843999799981,36.05846105100136,36.05846729299992,36.05847904800066,,,,,,,,,,,,,,,,,,,,,,,,559808\,001,2024-03-21_18h51.41.625,Test1,2023.2.3,None,2024-03-21 18h51.49.962923 -0300,
1,0,1,0,3,0,3,0,8,0,8,0,,,,,,,,,,,,,,,,,,,,,,,,,36.080326605000664,,,,,,,,,,,,,,,,,,,,,,,,,36.058617714999855,36.05863896400115,36.05864511600157,36.058657075000156,,,,,,,,,,,,,,,,,,,,,,,,559808\,001,2024-03-21_18h51.41.625,Test1,2023.2.3,None,2024-03-21 18h51.49.962923 -0300,
1,0,1,0,3,0,3,0,9,0,9,0,,,,,,,,,,,,,,,,,,,,,,,,,36.080326605000664,,,,,,,,,,,,,,,,,,,,,,,,,36.05880069400155,36.05882185400151,36.05882821400155,36.058840300000156,,,,,,,,,,,,,,,,,,,,,,,,559808\,001,2024-03-21_18h51.41.625,Test1,2023.2.3,None,2024-03-21 18h51.49.962923 -0300,
1,0,1,0,3,0,3,0,,,,,,,,,,,,,,,,,,,,,,,,,,,,,,,,,,,,,,,,,,,,,,,,,,,,,,,,,,,,,,,,,,,,,,,,,,,,,,,,,559808\,001,2024-03-21_18h51.41.625,Test1,2023.2.3,None,2024-03-21 18h51.49.962923 -0300,
1,0,1,0,4,0,4,0,0,0,0,0,,,,,,,,,,,,,,,,,,,,,,,,,36.080326605000664,,,,,,,,,,,,,,,,,,,,,,,,,36.059337251001125,36.05936232300155,36.05936903100155,36.05938170800073,,,,,,,,,,,,,,,,,,,,,,,,559808\,001,2024-03-21_18h51.41.625,Test1,2023.2.3,None,2024-03-21 18h51.49.962923 -0300,
1,0,1,0,4,0,4,0,1,0,1,0,,,,,,,,,,,,,,,,,,,,,,,,,36.080326605000664,,,,,,,,,,,,,,,,,,,,,,,,,36.05952778200117,36.05954997000117,36.05955620700115,36.05957351800134,,,,,,,,,,,,,,,,,,,,,,,,559808\,001,2024-03-21_18h51.41.625,Test1,2023.2.3,None,2024-03-21 18h51.49.962923 -0300,
1,0,1,0,4,0,4,0,2,0,2,0,,,,,,,,,,,,,,,,,,,,,,,,,36.080326605000664,,,,,,,,,,,,,,,,,,,,,,,,,36.059717060001276,36.059738885000115,36.05974504000005,36.05975718300033,,,,,,,,,,,,,,,,,,,,,,,,559808\,001,2024-03-21_18h51.41.625,Test1,2023.2.3,None,2024-03-21 18h51.49.962923 -0300,
1,0,1,0,4,0,4,0,3,0,3,0,,,,,,,,,,,,,,,,,,,,,,,,,36.080326605000664,,,,,,,,,,,,,,,,,,,,,,,,,36.059901554001044,36.05992279300153,36.05992904900086,36.05994091899993,,,,,,,,,,,,,,,,,,,,,,,,559808\,001,2024-03-21_18h51.41.625,Test1,2023.2.3,None,2024-03-21 18h51.49.962923 -0300,
1,0,1,0,4,0,4,0,4,0,4,0,,,,,,,,,,,,,,,,,,,,,,,,,36.080326605000664,,,,,,,,,,,,,,,,,,,,,,,,,36.06007894800132,36.06010001700088,36.06010629299999,36.06012187600027,,,,,,,,,,,,,,,,,,,,,,,,559808\,001,2024-03-21_18h51.41.625,Test1,2023.2.3,None,2024-03-21 18h51.49.962923 -0300,
1,0,1,0,4,0,4,0,5,0,5,0,,,,,,,,,,,,,,,,,,,,,,,,,36.080326605000664,,,,,,,,,,,,,,,,,,,,,,,,,36.06026533600016,36.060300848001134,36.060307212001135,36.06032226100069,,,,,,,,,,,,,,,,,,,,,,,,559808\,001,2024-03-21_18h51.41.625,Test1,2023.2.3,None,2024-03-21 18h51.49.962923 -0300,
1,0,1,0,4,0,4,0,6,0,6,0,,,,,,,,,,,,,,,,,,,,,,,,,36.080326605000664,,,,,,,,,,,,,,,,,,,,,,,,,36.06046710300143,36.06048734500109,36.06049350400099,36.06050537300143,,,,,,,,,,,,,,,,,,,,,,,,559808\,001,2024-03-21_18h51.41.625,Test1,2023.2.3,None,2024-03-21 18h51.49.962923 -0300,
1,0,1,0,4,0,4,0,7,0,7,0,,,,,,,,,,,,,,,,,,,,,,,,,36.080326605000664,,,,,,,,,,,,,,,,,,,,,,,,,36.06064562700158,36.06066610900052,36.06067209600042,36.06068386900006,,,,,,,,,,,,,,,,,,,,,,,,559808\,001,2024-03-21_18h51.41.625,Test1,2023.2.3,None,2024-03-21 18h51.49.962923 -0300,
1,0,1,0,4,0,4,0,8,0,8,0,,,,,,,,,,,,,,,,,,,,,,,,,36.080326605000664,,,,,,,,,,,,,,,,,,,,,,,,,36.06082064800103,36.06084157800069,36.06084755300071,36.060859265000545,,,,,,,,,,,,,,,,,,,,,,,,559808\,001,2024-03-21_18h51.41.625,Test1,2023.2.3,None,2024-03-21 18h51.49.962923 -0300,
1,0,1,0,4,0,4,0,9,0,9,0,,,,,,,,,,,,,,,,,,,,,,,,,36.080326605000664,,,,,,,,,,,,,,,,,,,,,,,,,36.06101088100149,36.06103320300099,36.06103917600012,36.06105494199983,,,,,,,,,,,,,,,,,,,,,,,,559808\,001,2024-03-21_18h51.41.625,Test1,2023.2.3,None,2024-03-21 18h51.49.962923 -0300,
1,0,1,0,4,0,4,0,,,,,,,,,,,,,,,,,,,,,,,,,,,,,,,,,,,,,,,,,,,,,,,,,,,,,,,,,,,,,,,,,,,,,,,,,,,,,,,,,559808\,001,2024-03-21_18h51.41.625,Test1,2023.2.3,None,2024-03-21 18h51.49.962923 -0300,
1,0,1,0,5,0,5,0,0,0,0,0,,,,,,,,,,,,,,,,,,,,,,,,,36.080326605000664,,,,,,,,,,,,,,,,,,,,,,,,,36.06176932800008,36.06179643300129,36.061803479000446,36.06181622599979,,,,,,,,,,,,,,,,,,,,,,,,559808\,001,2024-03-21_18h51.41.625,Test1,2023.2.3,None,2024-03-21 18h51.49.962923 -0300,
1,0,1,0,5,0,5,0,1,0,1,0,,,,,,,,,,,,,,,,,,,,,,,,,36.080326605000664,,,,,,,,,,,,,,,,,,,,,,,,,36.061964374001036,36.06198723899979,36.06199374100106,36.06200569700013,,,,,,,,,,,,,,,,,,,,,,,,559808\,001,2024-03-21_18h51.41.625,Test1,2023.2.3,None,2024-03-21 18h51.49.962923 -0300,
1,0,1,0,5,0,5,0,2,0,2,0,,,,,,,,,,,,,,,,,,,,,,,,,36.080326605000664,,,,,,,,,,,,,,,,,,,,,,,,,36.062156739000784,36.062178416999814,36.06218471000102,36.06219655800123,,,,,,,,,,,,,,,,,,,,,,,,559808\,001,2024-03-21_18h51.41.625,Test1,2023.2.3,None,2024-03-21 18h51.49.962923 -0300,
1,0,1,0,5,0,5,0,3,0,3,0,,,,,,,,,,,,,,,,,,,,,,,,,36.080326605000664,,,,,,,,,,,,,,,,,,,,,,,,,36.06233720800083,36.062358748000406,36.06236486000125,36.06237657700149,,,,,,,,,,,,,,,,,,,,,,,,559808\,001,2024-03-21_18h51.41.625,Test1,2023.2.3,None,2024-03-21 18h51.49.962923 -0300,
1,0,1,0,5,0,5,0,4,0,4,0,,,,,,,,,,,,,,,,,,,,,,,,,36.080326605000664,,,,,,,,,,,,,,,,,,,,,,,,,36.06251476699981,36.06253570300032,36.0625417730007,36.062553580000895,,,,,,,,,,,,,,,,,,,,,,,,559808\,001,2024-03-21_18h51.41.625,Test1,2023.2.3,None,2024-03-21 18h51.49.962923 -0300,
1,0,1,0,5,0,5,0,5,0,5,0,,,,,,,,,,,,,,,,,,,,,,,,,36.080326605000664,,,,,,,,,,,,,,,,,,,,,,,,,36.0626974679999,36.06271797000045,36.06272406700009,36.06273888600117,,,,,,,,,,,,,,,,,,,,,,,,559808\,001,2024-03-21_18h51.41.625,Test1,2023.2.3,None,2024-03-21 18h51.49.962923 -0300,
1,0,1,0,5,0,5,0,6,0,6,0,,,,,,,,,,,,,,,,,,,,,,,,,36.080326605000664,,,,,,,,,,,,,,,,,,,,,,,,,36.062876506000975,36.06289720300083,36.06290315700062,36.06291501800115,,,,,,,,,,,,,,,,,,,,,,,,559808\,001,2024-03-21_18h51.41.625,Test1,2023.2.3,None,2024-03-21 18h51.49.962923 -0300,
1,0,1,0,5,0,5,0,7,0,7,0,,,,,,,,,,,,,,,,,,,,,,,,,36.080326605000664,,,,,,,,,,,,,,,,,,,,,,,,,36.06305238400091,36.06307885200113,36.06308519800041,36.06309964899992,,,,,,,,,,,,,,,,,,,,,,,,559808\,001,2024-03-21_18h51.41.625,Test1,2023.2.3,None,2024-03-21 18h51.49.962923 -0300,
1,0,1,0,5,0,5,0,8,0,8,0,,,,,,,,,,,,,,,,,,,,,,,,,36.080326605000664,,,,,,,,,,,,,,,,,,,,,,,,,36.063237635000405,36.063258770000175,36.063264739999795,36.06327664800119,,,,,,,,,,,,,,,,,,,,,,,,559808\,001,2024-03-21_18h51.41.625,Test1,2023.2.3,None,2024-03-21 18h51.49.962923 -0300,
1,0,1,0,5,0,5,0,9,0,9,0,,,,,,,,,,,,,,,,,,,,,,,,,36.080326605000664,,,,,,,,,,,,,,,,,,,,,,,,,36.06342022799981,36.063441084999795,36.06344707500102,36.06345850300022,,,,,,,,,,,,,,,,,,,,,,,,559808\,001,2024-03-21_18h51.41.625,Test1,2023.2.3,None,2024-03-21 18h51.49.962923 -0300,
1,0,1,0,5,0,5,0,,,,,,,,,,,,,,,,,,,,,,,,,,,,,,,,,,,,,,,,,,,,,,,,,,,,,,,,,,,,,,,,,,,,,,,,,,,,,,,,,559808\,001,2024-03-21_18h51.41.625,Test1,2023.2.3,None,2024-03-21 18h51.49.962923 -0300,
1,0,1,0,6,0,6,0,0,0,0,0,,,,,,,,,,,,,,,,,,,,,,,,,36.080326605000664,,,,,,,,,,,,,,,,,,,,,,,,,36.06399115200111,36.06401582500075,36.0640224810013,36.064034965000246,,,,,,,,,,,,,,,,,,,,,,,,559808\,001,2024-03-21_18h51.41.625,Test1,2023.2.3,None,2024-03-21 18h51.49.962923 -0300,
1,0,1,0,6,0,6,0,1,0,1,0,,,,,,,,,,,,,,,,,,,,,,,,,36.080326605000664,,,,,,,,,,,,,,,,,,,,,,,,,36.06417986700035,36.06420170999991,36.06420782799978,36.06422414300141,,,,,,,,,,,,,,,,,,,,,,,,559808\,001,2024-03-21_18h51.41.625,Test1,2023.2.3,None,2024-03-21 18h51.49.962923 -0300,
1,0,1,0,6,0,6,0,2,0,2,0,,,,,,,,,,,,,,,,,,,,,,,,,36.080326605000664,,,,,,,,,,,,,,,,,,,,,,,,,36.06437099800132,36.06439204400158,36.06439807300012,36.064409624999826,,,,,,,,,,,,,,,,,,,,,,,,559808\,001,2024-03-21_18h51.41.625,Test1,2023.2.3,None,2024-03-21 18h51.49.962923 -0300,
1,0,1,0,6,0,6,0,3,0,3,0,,,,,,,,,,,,,,,,,,,,,,,,,36.080326605000664,,,,,,,,,,,,,,,,,,,,,,,,,36.06454930700056,36.06457712300107,36.06458369200118,36.0645959630001,,,,,,,,,,,,,,,,,,,,,,,,559808\,001,2024-03-21_18h51.41.625,Test1,2023.2.3,None,2024-03-21 18h51.49.962923 -0300,
1,0,1,0,6,0,6,0,4,0,4,0,,,,,,,,,,,,,,,,,,,,,,,,,36.080326605000664,,,,,,,,,,,,,,,,,,,,,,,,,36.064735753001514,36.06476134100012,36.06476755900076,36.06478009800048,,,,,,,,,,,,,,,,,,,,,,,,559808\,001,2024-03-21_18h51.41.625,Test1,2023.2.3,None,2024-03-21 18h51.49.962923 -0300,
1,0,1,0,6,0,6,0,5,0,5,0,,,,,,,,,,,,,,,,,,,,,,,,,36.080326605000664,,,,,,,,,,,,,,,,,,,,,,,,,36.06492808400071,36.06495036300112,36.0649565650001,36.064969368000675,,,,,,,,,,,,,,,,,,,,,,,,559808\,001,2024-03-21_18h51.41.625,Test1,2023.2.3,None,2024-03-21 18h51.49.962923 -0300,
1,0,1,0,6,0,6,0,6,0,6,0,,,,,,,,,,,,,,,,,,,,,,,,,36.080326605000664,,,,,,,,,,,,,,,,,,,,,,,,,36.06527078799991,36.065300207999826,36.065307024000504,36.0653216110004,,,,,,,,,,,,,,,,,,,,,,,,559808\,001,2024-03-21_18h51.41.625,Test1,2023.2.3,None,2024-03-21 18h51.49.962923 -0300,
1,0,1,0,6,0,6,0,7,0,7,0,,,,,,,,,,,,,,,,,,,,,,,,,36.080326605000664,,,,,,,,,,,,,,,,,,,,,,,,,36.065479515000334,36.065503462999914,36.06550974899983,36.065522304001206,,,,,,,,,,,,,,,,,,,,,,,,559808\,001,2024-03-21_18h51.41.625,Test1,2023.2.3,None,2024-03-21 18h51.49.962923 -0300,
1,0,1,0,6,0,6,0,8,0,8,0,,,,,,,,,,,,,,,,,,,,,,,,,36.080326605000664,,,,,,,,,,,,,,,,,,,,,,,,,36.06566810300137,36.06569129300078,36.06569751800089,36.06571591700049,,,,,,,,,,,,,,,,,,,,,,,,559808\,001,2024-03-21_18h51.41.625,Test1,2023.2.3,None,2024-03-21 18h51.49.962923 -0300,
1,0,1,0,6,0,6,0,9,0,9,0,,,,,,,,,,,,,,,,,,,,,,,,,36.080326605000664,,,,,,,,,,,,,,,,,,,,,,,,,36.065866901000845,36.065889548000996,36.06589564800015,36.06590863600104,,,,,,,,,,,,,,,,,,,,,,,,559808\,001,2024-03-21_18h51.41.625,Test1,2023.2.3,None,2024-03-21 18h51.49.962923 -0300,
1,0,1,0,6,0,6,0,,,,,,,,,,,,,,,,,,,,,,,,,,,,,,,,,,,,,,,,,,,,,,,,,,,,,,,,,,,,,,,,,,,,,,,,,,,,,,,,,559808\,001,2024-03-21_18h51.41.625,Test1,2023.2.3,None,2024-03-21 18h51.49.962923 -0300,
1,0,1,0,7,0,7,0,0,0,0,0,,,,,,,,,,,,,,,,,,,,,,,,,36.080326605000664,,,,,,,,,,,,,,,,,,,,,,,,,36.066431462000764,36.066458178000175,36.066464768000515,36.06647813300151,,,,,,,,,,,,,,,,,,,,,,,,559808\,001,2024-03-21_18h51.41.625,Test1,2023.2.3,None,2024-03-21 18h51.49.962923 -0300,
1,0,1,0,7,0,7,0,1,0,1,0,,,,,,,,,,,,,,,,,,,,,,,,,36.080326605000664,,,,,,,,,,,,,,,,,,,,,,,,,36.06662940300157,36.066653010000664,36.06665937900107,36.0666720650006,,,,,,,,,,,,,,,,,,,,,,,,559808\,001,2024-03-21_18h51.41.625,Test1,2023.2.3,None,2024-03-21 18h51.49.962923 -0300,
1,0,1,0,7,0,7,0,2,0,2,0,,,,,,,,,,,,,,,,,,,,,,,,,36.080326605000664,,,,,,,,,,,,,,,,,,,,,,,,,36.06681874300011,36.0668417779998,36.06684793900058,36.06686086599984,,,,,,,,,,,,,,,,,,,,,,,,559808\,001,2024-03-21_18h51.41.625,Test1,2023.2.3,None,2024-03-21 18h51.49.962923 -0300,
1,0,1,0,7,0,7,0,3,0,3,0,,,,,,,,,,,,,,,,,,,,,,,,,36.080326605000664,,,,,,,,,,,,,,,,,,,,,,,,,36.06699973600007,36.06702186700022,36.067028073000984,36.06704059000003,,,,,,,,,,,,,,,,,,,,,,,,559808\,001,2024-03-21_18h51.41.625,Test1,2023.2.3,None,2024-03-21 18h51.49.962923 -0300,
1,0,1,0,7,0,7,0,4,0,4,0,,,,,,,,,,,,,,,,,,,,,,,,,36.080326605000664,,,,,,,,,,,,,,,,,,,,,,,,,36.067179454001234,36.06720190499982,36.067207985001005,36.06722093999997,,,,,,,,,,,,,,,,,,,,,,,,559808\,001,2024-03-21_18h51.41.625,Test1,2023.2.3,None,2024-03-21 18h51.49.962923 -0300,
1,0,1,0,7,0,7,0,5,0,5,0,,,,,,,,,,,,,,,,,,,,,,,,,36.080326605000664,,,,,,,,,,,,,,,,,,,,,,,,,36.06736589400134,36.0673881040002,36.067394118001175,36.06740663100027,,,,,,,,,,,,,,,,,,,,,,,,559808\,001,2024-03-21_18h51.41.625,Test1,2023.2.3,None,2024-03-21 18h51.49.962923 -0300,
1,0,1,0,7,0,7,0,6,0,6,0,,,,,,,,,,,,,,,,,,,,,,,,,36.080326605000664,,,,,,,,,,,,,,,,,,,,,,,,,36.0675445830002,36.067566903000625,36.06757310300054,36.067585472001156,,,,,,,,,,,,,,,,,,,,,,,,559808\,001,2024-03-21_18h51.41.625,Test1,2023.2.3,None,2024-03-21 18h51.49.962923 -0300,
1,0,1,0,7,0,7,0,7,0,7,0,,,,,,,,,,,,,,,,,,,,,,,,,36.080326605000664,,,,,,,,,,,,,,,,,,,,,,,,,36.06772244500098,36.067746075001196,36.0677522320002,36.06776500200067,,,,,,,,,,,,,,,,,,,,,,,,559808\,001,2024-03-21_18h51.41.625,Test1,2023.2.3,None,2024-03-21 18h51.49.962923 -0300,
1,0,1,0,7,0,7,0,8,0,8,0,,,,,,,,,,,,,,,,,,,,,,,,,36.080326605000664,,,,,,,,,,,,,,,,,,,,,,,,,36.06790878799984,36.06793130200094,36.067937605001134,36.06795008100016,,,,,,,,,,,,,,,,,,,,,,,,559808\,001,2024-03-21_18h51.41.625,Test1,2023.2.3,None,2024-03-21 18h51.49.962923 -0300,
1,0,1,0,7,0,7,0,9,0,9,0,,,,,,,,,,,,,,,,,,,,,,,,,36.080326605000664,,,,,,,,,,,,,,,,,,,,,,,,,36.068092317000264,36.06811422900137,36.068120210000416,36.06813270800012,,,,,,,,,,,,,,,,,,,,,,,,559808\,001,2024-03-21_18h51.41.625,Test1,2023.2.3,None,2024-03-21 18h51.49.962923 -0300,
1,0,1,0,7,0,7,0,,,,,,,,,,,,,,,,,,,,,,,,,,,,,,,,,,,,,,,,,,,,,,,,,,,,,,,,,,,,,,,,,,,,,,,,,,,,,,,,,559808\,001,2024-03-21_18h51.41.625,Test1,2023.2.3,None,2024-03-21 18h51.49.962923 -0300,
1,0,1,0,8,0,8,0,0,0,0,0,,,,,,,,,,,,,,,,,,,,,,,,,36.080326605000664,,,,,,,,,,,,,,,,,,,,,,,,,36.06863393800086,36.068660488001115,36.06867084000078,36.06868505700004,,,,,,,,,,,,,,,,,,,,,,,,559808\,001,2024-03-21_18h51.41.625,Test1,2023.2.3,None,2024-03-21 18h51.49.962923 -0300,
1,0,1,0,8,0,8,0,1,0,1,0,,,,,,,,,,,,,,,,,,,,,,,,,36.080326605000664,,,,,,,,,,,,,,,,,,,,,,,,,36.06883066299997,36.06885846800105,36.06886512800156,36.068878678001056,,,,,,,,,,,,,,,,,,,,,,,,559808\,001,2024-03-21_18h51.41.625,Test1,2023.2.3,None,2024-03-21 18h51.49.962923 -0300,
1,0,1,0,8,0,8,0,2,0,2,0,,,,,,,,,,,,,,,,,,,,,,,,,36.080326605000664,,,,,,,,,,,,,,,,,,,,,,,,,36.06902844200158,36.06905158200061,36.06908699199994,36.069118799001444,,,,,,,,,,,,,,,,,,,,,,,,559808\,001,2024-03-21_18h51.41.625,Test1,2023.2.3,None,2024-03-21 18h51.49.962923 -0300,
1,0,1,0,8,0,8,0,3,0,3,0,,,,,,,,,,,,,,,,,,,,,,,,,36.080326605000664,,,,,,,,,,,,,,,,,,,,,,,,,36.06933945899982,36.06936253100139,36.06936867800141,36.06938126600107,,,,,,,,,,,,,,,,,,,,,,,,559808\,001,2024-03-21_18h51.41.625,Test1,2023.2.3,None,2024-03-21 18h51.49.962923 -0300,
1,0,1,0,8,0,8,0,4,0,4,0,,,,,,,,,,,,,,,,,,,,,,,,,36.080326605000664,,,,,,,,,,,,,,,,,,,,,,,,,36.06952523600012,36.06954790800046,36.06955412100069,36.0695666470001,,,,,,,,,,,,,,,,,,,,,,,,559808\,001,2024-03-21_18h51.41.625,Test1,2023.2.3,None,2024-03-21 18h51.49.962923 -0300,
1,0,1,0,8,0,8,0,5,0,5,0,,,,,,,,,,,,,,,,,,,,,,,,,36.080326605000664,,,,,,,,,,,,,,,,,,,,,,,,,36.06970891000128,36.06973053799993,36.069736604000354,36.06974942300076,,,,,,,,,,,,,,,,,,,,,,,,559808\,001,2024-03-21_18h51.41.625,Test1,2023.2.3,None,2024-03-21 18h51.49.962923 -0300,
1,0,1,0,8,0,8,0,6,0,6,0,,,,,,,,,,,,,,,,,,,,,,,,,36.080326605000664,,,,,,,,,,,,,,,,,,,,,,,,,36.069886668001345,36.069909143001496,36.069915228001264,36.06992791000084,,,,,,,,,,,,,,,,,,,,,,,,559808\,001,2024-03-21_18h51.41.625,Test1,2023.2.3,None,2024-03-21 18h51.49.962923 -0300,
1,0,1,0,8,0,8,0,7,0,7,0,,,,,,,,,,,,,,,,,,,,,,,,,36.080326605000664,,,,,,,,,,,,,,,,,,,,,,,,,36.07006468800137,36.070086606001496,36.070096448000186,36.07010921500114,,,,,,,,,,,,,,,,,,,,,,,,559808\,001,2024-03-21_18h51.41.625,Test1,2023.2.3,None,2024-03-21 18h51.49.962923 -0300,
1,0,1,0,8,0,8,0,8,0,8,0,,,,,,,,,,,,,,,,,,,,,,,,,36.080326605000664,,,,,,,,,,,,,,,,,,,,,,,,,36.070247546000246,36.0702702030012,36.070276328000546,36.07028881200131,,,,,,,,,,,,,,,,,,,,,,,,559808\,001,2024-03-21_18h51.41.625,Test1,2023.2.3,None,2024-03-21 18h51.49.962923 -0300,
1,0,1,0,8,0,8,0,9,0,9,0,,,,,,,,,,,,,,,,,,,,,,,,,36.080326605000664,,,,,,,,,,,,,,,,,,,,,,,,,36.070429999001135,36.07045227200069,36.070458308000525,36.07047049799985,,,,,,,,,,,,,,,,,,,,,,,,559808\,001,2024-03-21_18h51.41.625,Test1,2023.2.3,None,2024-03-21 18h51.49.962923 -0300,
1,0,1,0,8,0,8,0,,,,,,,,,,,,,,,,,,,,,,,,,,,,,,,,,,,,,,,,,,,,,,,,,,,,,,,,,,,,,,,,,,,,,,,,,,,,,,,,,559808\,001,2024-03-21_18h51.41.625,Test1,2023.2.3,None,2024-03-21 18h51.49.962923 -0300,
1,0,1,0,9,0,9,0,0,0,0,0,,,,,,,,,,,,,,,,,,,,,,,,,36.080326605000664,,,,,,,,,,,,,,,,,,,,,,,,,36.07096498900137,36.07099092000135,36.070997456999976,36.07101048700133,,,,,,,,,,,,,,,,,,,,,,,,559808\,001,2024-03-21_18h51.41.625,Test1,2023.2.3,None,2024-03-21 18h51.49.962923 -0300,
1,0,1,0,9,0,9,0,1,0,1,0,,,,,,,,,,,,,,,,,,,,,,,,,36.080326605000664,,,,,,,,,,,,,,,,,,,,,,,,,36.07115275200158,36.07117603000006,36.07118224500118,36.07119484000032,,,,,,,,,,,,,,,,,,,,,,,,559808\,001,2024-03-21_18h51.41.625,Test1,2023.2.3,None,2024-03-21 18h51.49.962923 -0300,
1,0,1,0,9,0,9,0,2,0,2,0,,,,,,,,,,,,,,,,,,,,,,,,,36.080326605000664,,,,,,,,,,,,,,,,,,,,,,,,,36.071345391999785,36.071368933000485,36.071375204001015,36.071387814001355,,,,,,,,,,,,,,,,,,,,,,,,559808\,001,2024-03-21_18h51.41.625,Test1,2023.2.3,None,2024-03-21 18h51.49.962923 -0300,
1,0,1,0,9,0,9,0,3,0,3,0,,,,,,,,,,,,,,,,,,,,,,,,,36.080326605000664,,,,,,,,,,,,,,,,,,,,,,,,,36.071525934999954,36.071552339000846,36.07155849599985,36.071570955000425,,,,,,,,,,,,,,,,,,,,,,,,559808\,001,2024-03-21_18h51.41.625,Test1,2023.2.3,None,2024-03-21 18h51.49.962923 -0300,
1,0,1,0,9,0,9,0,4,0,4,0,,,,,,,,,,,,,,,,,,,,,,,,,36.080326605000664,,,,,,,,,,,,,,,,,,,,,,,,,36.07174838100036,36.071771180000724,36.07177733700155,36.07179011400149,,,,,,,,,,,,,,,,,,,,,,,,559808\,001,2024-03-21_18h51.41.625,Test1,2023.2.3,None,2024-03-21 18h51.49.962923 -0300,
1,0,1,0,9,0,9,0,5,0,5,0,,,,,,,,,,,,,,,,,,,,,,,,,36.080326605000664,,,,,,,,,,,,,,,,,,,,,,,,,36.071941528000025,36.07196417800151,36.07197038800041,36.07198280800003,,,,,,,,,,,,,,,,,,,,,,,,559808\,001,2024-03-21_18h51.41.625,Test1,2023.2.3,None,2024-03-21 18h51.49.962923 -0300,
1,0,1,0,9,0,9,0,6,0,6,0,,,,,,,,,,,,,,,,,,,,,,,,,36.080326605000664,,,,,,,,,,,,,,,,,,,,,,,,,36.07212259500011,36.072144469000705,36.07215059900045,36.07216320900079,,,,,,,,,,,,,,,,,,,,,,,,559808\,001,2024-03-21_18h51.41.625,Test1,2023.2.3,None,2024-03-21 18h51.49.962923 -0300,
1,0,1,0,9,0,9,0,7,0,7,0,,,,,,,,,,,,,,,,,,,,,,,,,36.080326605000664,,,,,,,,,,,,,,,,,,,,,,,,,36.07230492300005,36.07232687100077,36.07233283300047,36.072345278000284,,,,,,,,,,,,,,,,,,,,,,,,559808\,001,2024-03-21_18h51.41.625,Test1,2023.2.3,None,2024-03-21 18h51.49.962923 -0300,
1,0,1,0,9,0,9,0,8,0,8,0,,,,,,,,,,,,,,,,,,,,,,,,,36.080326605000664,,,,,,,,,,,,,,,,,,,,,,,,,36.07248287699986,36.07250551300058,36.072511618000135,36.072523778000686,,,,,,,,,,,,,,,,,,,,,,,,559808\,001,2024-03-21_18h51.41.625,Test1,2023.2.3,None,2024-03-21 18h51.49.962923 -0300,
1,0,1,0,9,0,9,0,9,0,9,0,,,,,,,,,,,,,,,,,,,,,,,,,36.080326605000664,,,,,,,,,,,,,,,,,,,,,,,,,36.07266354500098,36.07268474800003,36.07269073600037,36.07270313800109,,,,,,,,,,,,,,,,,,,,,,,,559808\,001,2024-03-21_18h51.41.625,Test1,2023.2.3,None,2024-03-21 18h51.49.962923 -0300,
1,0,1,0,9,0,9,0,,,,,,,,,,,,,,,,,,,,,,,,,,,,,,,,,,,,,,,,,,,,,,,,,,,,,,,,,,,,,,,,,,,,,,,,,,,,,,,,,559808\,001,2024-03-21_18h51.41.625,Test1,2023.2.3,None,2024-03-21 18h51.49.962923 -0300,
,,,,,,,,,,,,,,,,,,,,,,,,,,,,,,,,,,,,36.080326605000664,,,,,,,,,,,,,,,,,,,,,,,,,,,,,36.073338341000635,36.080326605000664,36.080326605000664,36.080326605000664,36.080326605000664,,,,,,,,,,,,,,,,,,,,,,,,,,
