return_to_homepage.thisRepN,return_to_homepage.thisTrialN,return_to_homepage.thisN,return_to_homepage.thisIndex,trials_1.thisRepN,trials_1.thisTrialN,trials_1.thisN,trials_1.thisIndex,repetition_1.thisRepN,repetition_1.thisTrialN,repetition_1.thisN,repetition_1.thisIndex,trials_2.thisRepN,trials_2.thisTrialN,trials_2.thisN,trials_2.thisIndex,repetition_2.thisRepN,repetition_2.thisTrialN,repetition_2.thisN,repetition_2.thisIndex,trials_3.thisRepN,trials_3.thisTrialN,trials_3.thisN,trials_3.thisIndex,repetition_3.thisRepN,repetition_3.thisTrialN,repetition_3.thisN,repetition_3.thisIndex,trials_4.thisRepN,trials_4.thisTrialN,trials_4.thisN,trials_4.thisIndex,repetition_4.thisRepN,repetition_4.thisTrialN,repetition_4.thisN,repetition_4.thisIndex,thisRow.t,notes,WelcomeScreen.started,welcome_message.started,caution_sign.started,WelcomeScreen.stopped,PickTest.started,button_t1.started,button_t2.started,button_t3.started,button_t4.started,text.started,PickTest.stopped,button_t1.numClicks,button_t1.timesOn,button_t1.timesOff,button_t2.numClicks,button_t2.timesOn,button_t2.timesOff,button_t3.numClicks,button_t3.timesOn,button_t3.timesOff,button_t4.numClicks,button_t4.timesOn,button_t4.timesOff,test_1.started,test_1.stopped,blank1s_t1.started,blank1s_t1.stopped,test_2.started,obj1_t2.started,obj2_t2.started,obj3_t2.started,test_2_mess.started,test_2.stopped,blank1s_t2.started,blank_screen_t2_mess.started,blank1s_t2.stopped,test_3.started,test_3.stopped,blank1s_t3.started,blank1s_t3.stopped,test_4.started,test_4.stopped,blank1s_t4.started,blank1s_t4.stopped,button_t1.stopped,button_t2.stopped,button_t3.stopped,button_t4.stopped,text.stopped,obj1_t2.stopped,obj2_t2.stopped,obj3_t2.stopped,test_2_mess.stopped,blank_screen_t2_mess.stopped,obj1_t4.started,obj2_t4.started,obj3_t4.started,obj4_t4.started,obj5_t4.started,obj6_t4.started,obj7_t4.started,obj8_t4.started,obj9_t4.started,test_4_mess.started,blank_screen_t4_mess.started,blank_screen_t4_mess.stopped,obj1_t4.stopped,obj2_t4.stopped,obj3_t4.stopped,obj4_t4.stopped,obj5_t4.stopped,obj6_t4.stopped,obj7_t4.stopped,obj8_t4.stopped,obj9_t4.stopped,test_4_mess.stopped,participant,session,date,expName,psychopyVersion,frameRate,expStart,
0,0,0,0,0,0,0,0,0,0,0,0,,,,,,,,,,,,,,,,,,,,,,,,,20.03627459600102,,0.02927937000094971,0.06965807000051427,0.06965807000051427,10.00597015600033,10.008819188000416,10.0568615709999,10.0568615709999,10.0568615709999,10.0568615709999,10.0568615709999,20.003857347999656,0,,,2,"[3.7034148040002037, 6.773654426000576]","[3.901796372001627, 6.898967208000613]",0,,,0,,,20.006307576000836,20.006349785000566,20.00635900999987,20.006375803000992,,,,,,,,,,,,,,,,,,,,,,,,,,,,,,,,,,,,,,,,,,,,,,,,,,577530,001,2024-03-21_18h40.54.611,Test1,2023.2.3,None,2024-03-21 18h41.05.266844 -0300,
0,0,0,0,0,0,0,0,1,0,1,0,,,,,,,,,,,,,,,,,,,,,,,,,20.03627459600102,,,,,,,,,,,,,,,,,,,,,,,,,20.006636479000008,20.006665011000223,20.006672753999737,20.006686556000204,,,,,,,,,,,,,,,,,,,,,,,,,,,,,,,,,,,,,,,,,,,,,,,,,,577530,001,2024-03-21_18h40.54.611,Test1,2023.2.3,None,2024-03-21 18h41.05.266844 -0300,
0,0,0,0,0,0,0,0,2,0,2,0,,,,,,,,,,,,,,,,,,,,,,,,,20.03627459600102,,,,,,,,,,,,,,,,,,,,,,,,,20.006853048000266,20.006877048001115,20.006883885000207,20.006897192000906,,,,,,,,,,,,,,,,,,,,,,,,,,,,,,,,,,,,,,,,,,,,,,,,,,577530,001,2024-03-21_18h40.54.611,Test1,2023.2.3,None,2024-03-21 18h41.05.266844 -0300,
0,0,0,0,0,0,0,0,3,0,3,0,,,,,,,,,,,,,,,,,,,,,,,,,20.03627459600102,,,,,,,,,,,,,,,,,,,,,,,,,20.007058221999614,20.00708149899947,20.007088305999787,20.00710126500053,,,,,,,,,,,,,,,,,,,,,,,,,,,,,,,,,,,,,,,,,,,,,,,,,,577530,001,2024-03-21_18h40.54.611,Test1,2023.2.3,None,2024-03-21 18h41.05.266844 -0300,
0,0,0,0,0,0,0,0,4,0,4,0,,,,,,,,,,,,,,,,,,,,,,,,,20.03627459600102,,,,,,,,,,,,,,,,,,,,,,,,,20.00725740300004,20.007279720000952,20.007286514999578,20.00729948099979,,,,,,,,,,,,,,,,,,,,,,,,,,,,,,,,,,,,,,,,,,,,,,,,,,577530,001,2024-03-21_18h40.54.611,Test1,2023.2.3,None,2024-03-21 18h41.05.266844 -0300,
0,0,0,0,0,0,0,0,5,0,5,0,,,,,,,,,,,,,,,,,,,,,,,,,20.03627459600102,,,,,,,,,,,,,,,,,,,,,,,,,20.007453906000592,20.007476464999854,20.00748308400034,20.007495857000322,,,,,,,,,,,,,,,,,,,,,,,,,,,,,,,,,,,,,,,,,,,,,,,,,,577530,001,2024-03-21_18h40.54.611,Test1,2023.2.3,None,2024-03-21 18h41.05.266844 -0300,
0,0,0,0,0,0,0,0,6,0,6,0,,,,,,,,,,,,,,,,,,,,,,,,,20.03627459600102,,,,,,,,,,,,,,,,,,,,,,,,,20.00764932200036,20.007671178000237,20.007677727000555,20.007690632999584,,,,,,,,,,,,,,,,,,,,,,,,,,,,,,,,,,,,,,,,,,,,,,,,,,577530,001,2024-03-21_18h40.54.611,Test1,2023.2.3,None,2024-03-21 18h41.05.266844 -0300,
0,0,0,0,0,0,0,0,7,0,7,0,,,,,,,,,,,,,,,,,,,,,,,,,20.03627459600102,,,,,,,,,,,,,,,,,,,,,,,,,20.00784478100104,20.007867316000556,20.007874098000684,20.00788707600077,,,,,,,,,,,,,,,,,,,,,,,,,,,,,,,,,,,,,,,,,,,,,,,,,,577530,001,2024-03-21_18h40.54.611,Test1,2023.2.3,None,2024-03-21 18h41.05.266844 -0300,
0,0,0,0,0,0,0,0,8,0,8,0,,,,,,,,,,,,,,,,,,,,,,,,,20.03627459600102,,,,,,,,,,,,,,,,,,,,,,,,,20.00803956600066,20.008062360000622,20.008069360999798,20.008082839000053,,,,,,,,,,,,,,,,,,,,,,,,,,,,,,,,,,,,,,,,,,,,,,,,,,577530,001,2024-03-21_18h40.54.611,Test1,2023.2.3,None,2024-03-21 18h41.05.266844 -0300,
0,0,0,0,0,0,0,0,9,0,9,0,,,,,,,,,,,,,,,,,,,,,,,,,20.03627459600102,,,,,,,,,,,,,,,,,,,,,,,,,20.00823478700113,20.008256514000095,20.008263134001027,20.008276100999865,,,,,,,,,,,,,,,,,,,,,,,,,,,,,,,,,,,,,,,,,,,,,,,,,,577530,001,2024-03-21_18h40.54.611,Test1,2023.2.3,None,2024-03-21 18h41.05.266844 -0300,
0,0,0,0,0,0,0,0,,,,,,,,,,,,,,,,,,,,,,,,,,,,,,,,,,,,,,,,,,,,,,,,,,,,,,,,,,,,,,,,,,,,,,,,,,,,,,,,,,,,,,,,,,,,,,,,,,,,,,,,,,,577530,001,2024-03-21_18h40.54.611,Test1,2023.2.3,None,2024-03-21 18h41.05.266844 -0300,
0,0,0,0,1,0,1,0,0,0,0,0,,,,,,,,,,,,,,,,,,,,,,,,,20.03627459600102,,,,,,,,,,,,,,,,,,,,,,,,,20.008837281000524,20.008865101999618,20.00887282199983,20.008886400999472,,,,,,,,,,,,,,,,,,,,,,,,,,,,,,,,,,,,,,,,,,,,,,,,,,577530,001,2024-03-21_18h40.54.611,Test1,2023.2.3,None,2024-03-21 18h41.05.266844 -0300,
0,0,0,0,1,0,1,0,1,0,1,0,,,,,,,,,,,,,,,,,,,,,,,,,20.03627459600102,,,,,,,,,,,,,,,,,,,,,,,,,20.009045618000528,20.00906931999998,20.0090761320007,20.00908972599973,,,,,,,,,,,,,,,,,,,,,,,,,,,,,,,,,,,,,,,,,,,,,,,,,,577530,001,2024-03-21_18h40.54.611,Test1,2023.2.3,None,2024-03-21 18h41.05.266844 -0300,
0,0,0,0,1,0,1,0,2,0,2,0,,,,,,,,,,,,,,,,,,,,,,,,,20.03627459600102,,,,,,,,,,,,,,,,,,,,,,,,,20.00924304200089,20.009265142000004,20.00927175600009,20.00928474600005,,,,,,,,,,,,,,,,,,,,,,,,,,,,,,,,,,,,,,,,,,,,,,,,,,577530,001,2024-03-21_18h40.54.611,Test1,2023.2.3,None,2024-03-21 18h41.05.266844 -0300,
0,0,0,0,1,0,1,0,3,0,3,0,,,,,,,,,,,,,,,,,,,,,,,,,20.03627459600102,,,,,,,,,,,,,,,,,,,,,,,,,20.009464148000916,20.00950080000075,20.00950696000109,20.009518516000753,,,,,,,,,,,,,,,,,,,,,,,,,,,,,,,,,,,,,,,,,,,,,,,,,,577530,001,2024-03-21_18h40.54.611,Test1,2023.2.3,None,2024-03-21 18h41.05.266844 -0300,
0,0,0,0,1,0,1,0,4,0,4,0,,,,,,,,,,,,,,,,,,,,,,,,,20.03627459600102,,,,,,,,,,,,,,,,,,,,,,,,,20.00965489200098,20.009674802000518,20.009680860001026,20.00969261099999,,,,,,,,,,,,,,,,,,,,,,,,,,,,,,,,,,,,,,,,,,,,,,,,,,577530,001,2024-03-21_18h40.54.611,Test1,2023.2.3,None,2024-03-21 18h41.05.266844 -0300,
0,0,0,0,1,0,1,0,5,0,5,0,,,,,,,,,,,,,,,,,,,,,,,,,20.03627459600102,,,,,,,,,,,,,,,,,,,,,,,,,20.00982839199969,20.00984839600096,20.009854326001005,20.00986699799978,,,,,,,,,,,,,,,,,,,,,,,,,,,,,,,,,,,,,,,,,,,,,,,,,,577530,001,2024-03-21_18h40.54.611,Test1,2023.2.3,None,2024-03-21 18h41.05.266844 -0300,
0,0,0,0,1,0,1,0,6,0,6,0,,,,,,,,,,,,,,,,,,,,,,,,,20.03627459600102,,,,,,,,,,,,,,,,,,,,,,,,,20.010004542000388,20.010024524000983,20.010030540001026,20.010042104000604,,,,,,,,,,,,,,,,,,,,,,,,,,,,,,,,,,,,,,,,,,,,,,,,,,577530,001,2024-03-21_18h40.54.611,Test1,2023.2.3,None,2024-03-21 18h41.05.266844 -0300,
0,0,0,0,1,0,1,0,7,0,7,0,,,,,,,,,,,,,,,,,,,,,,,,,20.03627459600102,,,,,,,,,,,,,,,,,,,,,,,,,20.010180581000895,20.01020052199965,20.010206545000983,20.010218425999483,,,,,,,,,,,,,,,,,,,,,,,,,,,,,,,,,,,,,,,,,,,,,,,,,,577530,001,2024-03-21_18h40.54.611,Test1,2023.2.3,None,2024-03-21 18h41.05.266844 -0300,
0,0,0,0,1,0,1,0,8,0,8,0,,,,,,,,,,,,,,,,,,,,,,,,,20.03627459600102,,,,,,,,,,,,,,,,,,,,,,,,,20.01035545600098,20.010375510999438,20.01038153599984,20.010392984000646,,,,,,,,,,,,,,,,,,,,,,,,,,,,,,,,,,,,,,,,,,,,,,,,,,577530,001,2024-03-21_18h40.54.611,Test1,2023.2.3,None,2024-03-21 18h41.05.266844 -0300,
0,0,0,0,1,0,1,0,9,0,9,0,,,,,,,,,,,,,,,,,,,,,,,,,20.03627459600102,,,,,,,,,,,,,,,,,,,,,,,,,20.01052927800083,20.010550001999945,20.01055604100111,20.010567847000857,,,,,,,,,,,,,,,,,,,,,,,,,,,,,,,,,,,,,,,,,,,,,,,,,,577530,001,2024-03-21_18h40.54.611,Test1,2023.2.3,None,2024-03-21 18h41.05.266844 -0300,
0,0,0,0,1,0,1,0,,,,,,,,,,,,,,,,,,,,,,,,,,,,,,,,,,,,,,,,,,,,,,,,,,,,,,,,,,,,,,,,,,,,,,,,,,,,,,,,,,,,,,,,,,,,,,,,,,,,,,,,,,,577530,001,2024-03-21_18h40.54.611,Test1,2023.2.3,None,2024-03-21 18h41.05.266844 -0300,
0,0,0,0,2,0,2,0,0,0,0,0,,,,,,,,,,,,,,,,,,,,,,,,,20.03627459600102,,,,,,,,,,,,,,,,,,,,,,,,,20.01111823700012,20.01114186199993,20.0111483820001,20.01116092400116,,,,,,,,,,,,,,,,,,,,,,,,,,,,,,,,,,,,,,,,,,,,,,,,,,577530,001,2024-03-21_18h40.54.611,Test1,2023.2.3,None,2024-03-21 18h41.05.266844 -0300,
0,0,0,0,2,0,2,0,1,0,1,0,,,,,,,,,,,,,,,,,,,,,,,,,20.03627459600102,,,,,,,,,,,,,,,,,,,,,,,,,20.011303170000247,20.01132436199987,20.01133053400008,20.011342681000315,,,,,,,,,,,,,,,,,,,,,,,,,,,,,,,,,,,,,,,,,,,,,,,,,,577530,001,2024-03-21_18h40.54.611,Test1,2023.2.3,None,2024-03-21 18h41.05.266844 -0300,
0,0,0,0,2,0,2,0,2,0,2,0,,,,,,,,,,,,,,,,,,,,,,,,,20.03627459600102,,,,,,,,,,,,,,,,,,,,,,,,,20.011482705000162,20.01150376700025,20.01150976000099,20.01152180400095,,,,,,,,,,,,,,,,,,,,,,,,,,,,,,,,,,,,,,,,,,,,,,,,,,577530,001,2024-03-21_18h40.54.611,Test1,2023.2.3,None,2024-03-21 18h41.05.266844 -0300,
0,0,0,0,2,0,2,0,3,0,3,0,,,,,,,,,,,,,,,,,,,,,,,,,20.03627459600102,,,,,,,,,,,,,,,,,,,,,,,,,20.01165868499993,20.01168636300099,20.011692645999574,20.011705887000062,,,,,,,,,,,,,,,,,,,,,,,,,,,,,,,,,,,,,,,,,,,,,,,,,,577530,001,2024-03-21_18h40.54.611,Test1,2023.2.3,None,2024-03-21 18h41.05.266844 -0300,
0,0,0,0,2,0,2,0,4,0,4,0,,,,,,,,,,,,,,,,,,,,,,,,,20.03627459600102,,,,,,,,,,,,,,,,,,,,,,,,,20.011844421000205,20.01186514999972,20.011871266000526,20.011882695000168,,,,,,,,,,,,,,,,,,,,,,,,,,,,,,,,,,,,,,,,,,,,,,,,,,577530,001,2024-03-21_18h40.54.611,Test1,2023.2.3,None,2024-03-21 18h41.05.266844 -0300,
0,0,0,0,2,0,2,0,5,0,5,0,,,,,,,,,,,,,,,,,,,,,,,,,20.03627459600102,,,,,,,,,,,,,,,,,,,,,,,,,20.012019678999422,20.01203978600097,20.012045916000716,20.012057445999744,,,,,,,,,,,,,,,,,,,,,,,,,,,,,,,,,,,,,,,,,,,,,,,,,,577530,001,2024-03-21_18h40.54.611,Test1,2023.2.3,None,2024-03-21 18h41.05.266844 -0300,
0,0,0,0,2,0,2,0,6,0,6,0,,,,,,,,,,,,,,,,,,,,,,,,,20.03627459600102,,,,,,,,,,,,,,,,,,,,,,,,,20.012199038999825,20.01221939500101,20.01222542799951,20.012237216000358,,,,,,,,,,,,,,,,,,,,,,,,,,,,,,,,,,,,,,,,,,,,,,,,,,577530,001,2024-03-21_18h40.54.611,Test1,2023.2.3,None,2024-03-21 18h41.05.266844 -0300,
0,0,0,0,2,0,2,0,7,0,7,0,,,,,,,,,,,,,,,,,,,,,,,,,20.03627459600102,,,,,,,,,,,,,,,,,,,,,,,,,20.01237829599995,20.01239864300078,20.012404744000378,20.012416301000485,,,,,,,,,,,,,,,,,,,,,,,,,,,,,,,,,,,,,,,,,,,,,,,,,,577530,001,2024-03-21_18h40.54.611,Test1,2023.2.3,None,2024-03-21 18h41.05.266844 -0300,
0,0,0,0,2,0,2,0,8,0,8,0,,,,,,,,,,,,,,,,,,,,,,,,,20.03627459600102,,,,,,,,,,,,,,,,,,,,,,,,,20.012552005000543,20.01257234900004,20.012578407000547,20.012590198999533,,,,,,,,,,,,,,,,,,,,,,,,,,,,,,,,,,,,,,,,,,,,,,,,,,577530,001,2024-03-21_18h40.54.611,Test1,2023.2.3,None,2024-03-21 18h41.05.266844 -0300,
0,0,0,0,2,0,2,0,9,0,9,0,,,,,,,,,,,,,,,,,,,,,,,,,20.03627459600102,,,,,,,,,,,,,,,,,,,,,,,,,20.012732266000967,20.012753176000842,20.012759060000462,20.012770600000295,,,,,,,,,,,,,,,,,,,,,,,,,,,,,,,,,,,,,,,,,,,,,,,,,,577530,001,2024-03-21_18h40.54.611,Test1,2023.2.3,None,2024-03-21 18h41.05.266844 -0300,
0,0,0,0,2,0,2,0,,,,,,,,,,,,,,,,,,,,,,,,,,,,,,,,,,,,,,,,,,,,,,,,,,,,,,,,,,,,,,,,,,,,,,,,,,,,,,,,,,,,,,,,,,,,,,,,,,,,,,,,,,,577530,001,2024-03-21_18h40.54.611,Test1,2023.2.3,None,2024-03-21 18h41.05.266844 -0300,
0,0,0,0,3,0,3,0,0,0,0,0,,,,,,,,,,,,,,,,,,,,,,,,,20.03627459600102,,,,,,,,,,,,,,,,,,,,,,,,,20.01325540400103,20.013279132001117,20.013285643999552,20.013297867999427,,,,,,,,,,,,,,,,,,,,,,,,,,,,,,,,,,,,,,,,,,,,,,,,,,577530,001,2024-03-21_18h40.54.611,Test1,2023.2.3,None,2024-03-21 18h41.05.266844 -0300,
0,0,0,0,3,0,3,0,1,0,1,0,,,,,,,,,,,,,,,,,,,,,,,,,20.03627459600102,,,,,,,,,,,,,,,,,,,,,,,,,20.01345035600025,20.013471733000188,20.013478065000527,20.0134898360011,,,,,,,,,,,,,,,,,,,,,,,,,,,,,,,,,,,,,,,,,,,,,,,,,,577530,001,2024-03-21_18h40.54.611,Test1,2023.2.3,None,2024-03-21 18h41.05.266844 -0300,
0,0,0,0,3,0,3,0,2,0,2,0,,,,,,,,,,,,,,,,,,,,,,,,,20.03627459600102,,,,,,,,,,,,,,,,,,,,,,,,,20.013636249999763,20.013656856001035,20.013663072999407,20.013674720999916,,,,,,,,,,,,,,,,,,,,,,,,,,,,,,,,,,,,,,,,,,,,,,,,,,577530,001,2024-03-21_18h40.54.611,Test1,2023.2.3,None,2024-03-21 18h41.05.266844 -0300,
0,0,0,0,3,0,3,0,3,0,3,0,,,,,,,,,,,,,,,,,,,,,,,,,20.03627459600102,,,,,,,,,,,,,,,,,,,,,,,,,20.013815935999446,20.013836381000147,20.013842332000422,20.01386802399975,,,,,,,,,,,,,,,,,,,,,,,,,,,,,,,,,,,,,,,,,,,,,,,,,,577530,001,2024-03-21_18h40.54.611,Test1,2023.2.3,None,2024-03-21 18h41.05.266844 -0300,
0,0,0,0,3,0,3,0,4,0,4,0,,,,,,,,,,,,,,,,,,,,,,,,,20.03627459600102,,,,,,,,,,,,,,,,,,,,,,,,,20.01401142100076,20.014032150000276,20.014038467999853,20.01405005400011,,,,,,,,,,,,,,,,,,,,,,,,,,,,,,,,,,,,,,,,,,,,,,,,,,577530,001,2024-03-21_18h40.54.611,Test1,2023.2.3,None,2024-03-21 18h41.05.266844 -0300,
0,0,0,0,3,0,3,0,5,0,5,0,,,,,,,,,,,,,,,,,,,,,,,,,20.03627459600102,,,,,,,,,,,,,,,,,,,,,,,,,20.014196046000507,20.014223395000954,20.014229999000236,20.01424176600085,,,,,,,,,,,,,,,,,,,,,,,,,,,,,,,,,,,,,,,,,,,,,,,,,,577530,001,2024-03-21_18h40.54.611,Test1,2023.2.3,None,2024-03-21 18h41.05.266844 -0300,
0,0,0,0,3,0,3,0,6,0,6,0,,,,,,,,,,,,,,,,,,,,,,,,,20.03627459600102,,,,,,,,,,,,,,,,,,,,,,,,,20.014379778000148,20.014400288000616,20.014406369000426,20.01441821300068,,,,,,,,,,,,,,,,,,,,,,,,,,,,,,,,,,,,,,,,,,,,,,,,,,577530,001,2024-03-21_18h40.54.611,Test1,2023.2.3,None,2024-03-21 18h41.05.266844 -0300,
0,0,0,0,3,0,3,0,7,0,7,0,,,,,,,,,,,,,,,,,,,,,,,,,20.03627459600102,,,,,,,,,,,,,,,,,,,,,,,,,20.01460589099952,20.014627385000495,20.014633581000453,20.014645631999883,,,,,,,,,,,,,,,,,,,,,,,,,,,,,,,,,,,,,,,,,,,,,,,,,,577530,001,2024-03-21_18h40.54.611,Test1,2023.2.3,None,2024-03-21 18h41.05.266844 -0300,
0,0,0,0,3,0,3,0,8,0,8,0,,,,,,,,,,,,,,,,,,,,,,,,,20.03627459600102,,,,,,,,,,,,,,,,,,,,,,,,,20.014788903999943,20.014809456000876,20.01481555099963,20.01482745500107,,,,,,,,,,,,,,,,,,,,,,,,,,,,,,,,,,,,,,,,,,,,,,,,,,577530,001,2024-03-21_18h40.54.611,Test1,2023.2.3,None,2024-03-21 18h41.05.266844 -0300,
0,0,0,0,3,0,3,0,9,0,9,0,,,,,,,,,,,,,,,,,,,,,,,,,20.03627459600102,,,,,,,,,,,,,,,,,,,,,,,,,20.01496545000009,20.014986129001045,20.0149921480006,20.015004245000455,,,,,,,,,,,,,,,,,,,,,,,,,,,,,,,,,,,,,,,,,,,,,,,,,,577530,001,2024-03-21_18h40.54.611,Test1,2023.2.3,None,2024-03-21 18h41.05.266844 -0300,
0,0,0,0,3,0,3,0,,,,,,,,,,,,,,,,,,,,,,,,,,,,,,,,,,,,,,,,,,,,,,,,,,,,,,,,,,,,,,,,,,,,,,,,,,,,,,,,,,,,,,,,,,,,,,,,,,,,,,,,,,,577530,001,2024-03-21_18h40.54.611,Test1,2023.2.3,None,2024-03-21 18h41.05.266844 -0300,
0,0,0,0,4,0,4,0,0,0,0,0,,,,,,,,,,,,,,,,,,,,,,,,,20.03627459600102,,,,,,,,,,,,,,,,,,,,,,,,,20.015492903999984,20.015517507999903,20.01552413200079,20.015536752000116,,,,,,,,,,,,,,,,,,,,,,,,,,,,,,,,,,,,,,,,,,,,,,,,,,577530,001,2024-03-21_18h40.54.611,Test1,2023.2.3,None,2024-03-21 18h41.05.266844 -0300,
0,0,0,0,4,0,4,0,1,0,1,0,,,,,,,,,,,,,,,,,,,,,,,,,20.03627459600102,,,,,,,,,,,,,,,,,,,,,,,,,20.01568063600098,20.015702311000496,20.015708654000264,20.015725442000985,,,,,,,,,,,,,,,,,,,,,,,,,,,,,,,,,,,,,,,,,,,,,,,,,,577530,001,2024-03-21_18h40.54.611,Test1,2023.2.3,None,2024-03-21 18h41.05.266844 -0300,
0,0,0,0,4,0,4,0,2,0,2,0,,,,,,,,,,,,,,,,,,,,,,,,,20.03627459600102,,,,,,,,,,,,,,,,,,,,,,,,,20.015867902000537,20.015889636000793,20.015895941000053,20.015908076000414,,,,,,,,,,,,,,,,,,,,,,,,,,,,,,,,,,,,,,,,,,,,,,,,,,577530,001,2024-03-21_18h40.54.611,Test1,2023.2.3,None,2024-03-21 18h41.05.266844 -0300,
0,0,0,0,4,0,4,0,3,0,3,0,,,,,,,,,,,,,,,,,,,,,,,,,20.03627459600102,,,,,,,,,,,,,,,,,,,,,,,,,20.016059527000834,20.016080987999885,20.016087195999717,20.01609925199955,,,,,,,,,,,,,,,,,,,,,,,,,,,,,,,,,,,,,,,,,,,,,,,,,,577530,001,2024-03-21_18h40.54.611,Test1,2023.2.3,None,2024-03-21 18h41.05.266844 -0300,
0,0,0,0,4,0,4,0,4,0,4,0,,,,,,,,,,,,,,,,,,,,,,,,,20.03627459600102,,,,,,,,,,,,,,,,,,,,,,,,,20.016243698000835,20.01626460999978,20.016270722000627,20.016282750000755,,,,,,,,,,,,,,,,,,,,,,,,,,,,,,,,,,,,,,,,,,,,,,,,,,577530,001,2024-03-21_18h40.54.611,Test1,2023.2.3,None,2024-03-21 18h41.05.266844 -0300,
0,0,0,0,4,0,4,0,5,0,5,0,,,,,,,,,,,,,,,,,,,,,,,,,20.03627459600102,,,,,,,,,,,,,,,,,,,,,,,,,20.016420633999587,20.016440703000626,20.016446843999802,20.016458653999507,,,,,,,,,,,,,,,,,,,,,,,,,,,,,,,,,,,,,,,,,,,,,,,,,,577530,001,2024-03-21_18h40.54.611,Test1,2023.2.3,None,2024-03-21 18h41.05.266844 -0300,
0,0,0,0,4,0,4,0,6,0,6,0,,,,,,,,,,,,,,,,,,,,,,,,,20.03627459600102,,,,,,,,,,,,,,,,,,,,,,,,,20.016595831000814,20.016616400000203,20.016622674000246,20.016637585000353,,,,,,,,,,,,,,,,,,,,,,,,,,,,,,,,,,,,,,,,,,,,,,,,,,577530,001,2024-03-21_18h40.54.611,Test1,2023.2.3,None,2024-03-21 18h41.05.266844 -0300,
0,0,0,0,4,0,4,0,7,0,7,0,,,,,,,,,,,,,,,,,,,,,,,,,20.03627459600102,,,,,,,,,,,,,,,,,,,,,,,,,20.0167847470002,20.016805641000246,20.016811831999803,20.016824055001052,,,,,,,,,,,,,,,,,,,,,,,,,,,,,,,,,,,,,,,,,,,,,,,,,,577530,001,2024-03-21_18h40.54.611,Test1,2023.2.3,None,2024-03-21 18h41.05.266844 -0300,
0,0,0,0,4,0,4,0,8,0,8,0,,,,,,,,,,,,,,,,,,,,,,,,,20.03627459600102,,,,,,,,,,,,,,,,,,,,,,,,,20.01696128600088,20.016981667000437,20.016987716000585,20.016999473000396,,,,,,,,,,,,,,,,,,,,,,,,,,,,,,,,,,,,,,,,,,,,,,,,,,577530,001,2024-03-21_18h40.54.611,Test1,2023.2.3,None,2024-03-21 18h41.05.266844 -0300,
0,0,0,0,4,0,4,0,9,0,9,0,,,,,,,,,,,,,,,,,,,,,,,,,20.03627459600102,,,,,,,,,,,,,,,,,,,,,,,,,20.0171366579998,20.017156781001177,20.01716282599955,20.01717489099974,,,,,,,,,,,,,,,,,,,,,,,,,,,,,,,,,,,,,,,,,,,,,,,,,,577530,001,2024-03-21_18h40.54.611,Test1,2023.2.3,None,2024-03-21 18h41.05.266844 -0300,
0,0,0,0,4,0,4,0,,,,,,,,,,,,,,,,,,,,,,,,,,,,,,,,,,,,,,,,,,,,,,,,,,,,,,,,,,,,,,,,,,,,,,,,,,,,,,,,,,,,,,,,,,,,,,,,,,,,,,,,,,,577530,001,2024-03-21_18h40.54.611,Test1,2023.2.3,None,2024-03-21 18h41.05.266844 -0300,
0,0,0,0,5,0,5,0,0,0,0,0,,,,,,,,,,,,,,,,,,,,,,,,,20.03627459600102,,,,,,,,,,,,,,,,,,,,,,,,,20.01767118799944,20.017695206001008,20.017702081000607,20.01771463700061,,,,,,,,,,,,,,,,,,,,,,,,,,,,,,,,,,,,,,,,,,,,,,,,,,577530,001,2024-03-21_18h40.54.611,Test1,2023.2.3,None,2024-03-21 18h41.05.266844 -0300,
0,0,0,0,5,0,5,0,1,0,1,0,,,,,,,,,,,,,,,,,,,,,,,,,20.03627459600102,,,,,,,,,,,,,,,,,,,,,,,,,20.01785775099961,20.017879680999613,20.017885970999487,20.017897936000736,,,,,,,,,,,,,,,,,,,,,,,,,,,,,,,,,,,,,,,,,,,,,,,,,,577530,001,2024-03-21_18h40.54.611,Test1,2023.2.3,None,2024-03-21 18h41.05.266844 -0300,
0,0,0,0,5,0,5,0,2,0,2,0,,,,,,,,,,,,,,,,,,,,,,,,,20.03627459600102,,,,,,,,,,,,,,,,,,,,,,,,,20.01804428200012,20.018065516000206,20.018071762000545,20.01808374200118,,,,,,,,,,,,,,,,,,,,,,,,,,,,,,,,,,,,,,,,,,,,,,,,,,577530,001,2024-03-21_18h40.54.611,Test1,2023.2.3,None,2024-03-21 18h41.05.266844 -0300,
0,0,0,0,5,0,5,0,3,0,3,0,,,,,,,,,,,,,,,,,,,,,,,,,20.03627459600102,,,,,,,,,,,,,,,,,,,,,,,,,20.018226180000056,20.018246546000228,20.01825282200116,20.018264805999934,,,,,,,,,,,,,,,,,,,,,,,,,,,,,,,,,,,,,,,,,,,,,,,,,,577530,001,2024-03-21_18h40.54.611,Test1,2023.2.3,None,2024-03-21 18h41.05.266844 -0300,
0,0,0,0,5,0,5,0,4,0,4,0,,,,,,,,,,,,,,,,,,,,,,,,,20.03627459600102,,,,,,,,,,,,,,,,,,,,,,,,,20.01840237400029,20.01842270599991,20.018428905999826,20.01844077200076,,,,,,,,,,,,,,,,,,,,,,,,,,,,,,,,,,,,,,,,,,,,,,,,,,577530,001,2024-03-21_18h40.54.611,Test1,2023.2.3,None,2024-03-21 18h41.05.266844 -0300,
0,0,0,0,5,0,5,0,5,0,5,0,,,,,,,,,,,,,,,,,,,,,,,,,20.03627459600102,,,,,,,,,,,,,,,,,,,,,,,,,20.018577959999675,20.01859884100122,20.018608522999784,20.018620664999617,,,,,,,,,,,,,,,,,,,,,,,,,,,,,,,,,,,,,,,,,,,,,,,,,,577530,001,2024-03-21_18h40.54.611,Test1,2023.2.3,None,2024-03-21 18h41.05.266844 -0300,
0,0,0,0,5,0,5,0,6,0,6,0,,,,,,,,,,,,,,,,,,,,,,,,,20.03627459600102,,,,,,,,,,,,,,,,,,,,,,,,,20.018764087000818,20.01878528099951,20.018791336000504,20.01880297000025,,,,,,,,,,,,,,,,,,,,,,,,,,,,,,,,,,,,,,,,,,,,,,,,,,577530,001,2024-03-21_18h40.54.611,Test1,2023.2.3,None,2024-03-21 18h41.05.266844 -0300,
0,0,0,0,5,0,5,0,7,0,7,0,,,,,,,,,,,,,,,,,,,,,,,,,20.03627459600102,,,,,,,,,,,,,,,,,,,,,,,,,20.018943442999444,20.018964418000905,20.018970660999912,20.018982380001034,,,,,,,,,,,,,,,,,,,,,,,,,,,,,,,,,,,,,,,,,,,,,,,,,,577530,001,2024-03-21_18h40.54.611,Test1,2023.2.3,None,2024-03-21 18h41.05.266844 -0300,
0,0,0,0,5,0,5,0,8,0,8,0,,,,,,,,,,,,,,,,,,,,,,,,,20.03627459600102,,,,,,,,,,,,,,,,,,,,,,,,,20.019118320000416,20.019138486000884,20.01914464100082,20.019156526001098,,,,,,,,,,,,,,,,,,,,,,,,,,,,,,,,,,,,,,,,,,,,,,,,,,577530,001,2024-03-21_18h40.54.611,Test1,2023.2.3,None,2024-03-21 18h41.05.266844 -0300,
0,0,0,0,5,0,5,0,9,0,9,0,,,,,,,,,,,,,,,,,,,,,,,,,20.03627459600102,,,,,,,,,,,,,,,,,,,,,,,,,20.01930166800048,20.019321972000398,20.019328050000695,20.01933993500097,,,,,,,,,,,,,,,,,,,,,,,,,,,,,,,,,,,,,,,,,,,,,,,,,,577530,001,2024-03-21_18h40.54.611,Test1,2023.2.3,None,2024-03-21 18h41.05.266844 -0300,
0,0,0,0,5,0,5,0,,,,,,,,,,,,,,,,,,,,,,,,,,,,,,,,,,,,,,,,,,,,,,,,,,,,,,,,,,,,,,,,,,,,,,,,,,,,,,,,,,,,,,,,,,,,,,,,,,,,,,,,,,,577530,001,2024-03-21_18h40.54.611,Test1,2023.2.3,None,2024-03-21 18h41.05.266844 -0300,
0,0,0,0,6,0,6,0,0,0,0,0,,,,,,,,,,,,,,,,,,,,,,,,,20.03627459600102,,,,,,,,,,,,,,,,,,,,,,,,,20.01982770200084,20.019852371000525,20.019859195999743,20.019871493999744,,,,,,,,,,,,,,,,,,,,,,,,,,,,,,,,,,,,,,,,,,,,,,,,,,577530,001,2024-03-21_18h40.54.611,Test1,2023.2.3,None,2024-03-21 18h41.05.266844 -0300,
0,0,0,0,6,0,6,0,1,0,1,0,,,,,,,,,,,,,,,,,,,,,,,,,20.03627459600102,,,,,,,,,,,,,,,,,,,,,,,,,20.02002242600065,20.020044406001034,20.02005085500059,20.020062859000973,,,,,,,,,,,,,,,,,,,,,,,,,,,,,,,,,,,,,,,,,,,,,,,,,,577530,001,2024-03-21_18h40.54.611,Test1,2023.2.3,None,2024-03-21 18h41.05.266844 -0300,
0,0,0,0,6,0,6,0,2,0,2,0,,,,,,,,,,,,,,,,,,,,,,,,,20.03627459600102,,,,,,,,,,,,,,,,,,,,,,,,,20.020202968000376,20.02022400399983,20.02023027299947,20.020242280001185,,,,,,,,,,,,,,,,,,,,,,,,,,,,,,,,,,,,,,,,,,,,,,,,,,577530,001,2024-03-21_18h40.54.611,Test1,2023.2.3,None,2024-03-21 18h41.05.266844 -0300,
0,0,0,0,6,0,6,0,3,0,3,0,,,,,,,,,,,,,,,,,,,,,,,,,20.03627459600102,,,,,,,,,,,,,,,,,,,,,,,,,20.020385840000017,20.020406380001077,20.020412576001036,20.02042443800019,,,,,,,,,,,,,,,,,,,,,,,,,,,,,,,,,,,,,,,,,,,,,,,,,,577530,001,2024-03-21_18h40.54.611,Test1,2023.2.3,None,2024-03-21 18h41.05.266844 -0300,
0,0,0,0,6,0,6,0,4,0,4,0,,,,,,,,,,,,,,,,,,,,,,,,,20.03627459600102,,,,,,,,,,,,,,,,,,,,,,,,,20.020568120000462,20.020594871999492,20.020601150999937,20.020613921000404,,,,,,,,,,,,,,,,,,,,,,,,,,,,,,,,,,,,,,,,,,,,,,,,,,577530,001,2024-03-21_18h40.54.611,Test1,2023.2.3,None,2024-03-21 18h41.05.266844 -0300,
0,0,0,0,6,0,6,0,5,0,5,0,,,,,,,,,,,,,,,,,,,,,,,,,20.03627459600102,,,,,,,,,,,,,,,,,,,,,,,,,20.02076265300093,20.02078416400036,20.020790386000954,20.020803331000934,,,,,,,,,,,,,,,,,,,,,,,,,,,,,,,,,,,,,,,,,,,,,,,,,,577530,001,2024-03-21_18h40.54.611,Test1,2023.2.3,None,2024-03-21 18h41.05.266844 -0300,
0,0,0,0,6,0,6,0,6,0,6,0,,,,,,,,,,,,,,,,,,,,,,,,,20.03627459600102,,,,,,,,,,,,,,,,,,,,,,,,,20.021151000000827,20.02117841600011,20.0211854650006,20.021199370999966,,,,,,,,,,,,,,,,,,,,,,,,,,,,,,,,,,,,,,,,,,,,,,,,,,577530,001,2024-03-21_18h40.54.611,Test1,2023.2.3,None,2024-03-21 18h41.05.266844 -0300,
0,0,0,0,6,0,6,0,7,0,7,0,,,,,,,,,,,,,,,,,,,,,,,,,20.03627459600102,,,,,,,,,,,,,,,,,,,,,,,,,20.021362232000683,20.02138574700075,20.021392306000052,20.021405192999737,,,,,,,,,,,,,,,,,,,,,,,,,,,,,,,,,,,,,,,,,,,,,,,,,,577530,001,2024-03-21_18h40.54.611,Test1,2023.2.3,None,2024-03-21 18h41.05.266844 -0300,
0,0,0,0,6,0,6,0,8,0,8,0,,,,,,,,,,,,,,,,,,,,,,,,,20.03627459600102,,,,,,,,,,,,,,,,,,,,,,,,,20.021556917999987,20.02157894800075,20.021585294000033,20.021598040000754,,,,,,,,,,,,,,,,,,,,,,,,,,,,,,,,,,,,,,,,,,,,,,,,,,577530,001,2024-03-21_18h40.54.611,Test1,2023.2.3,None,2024-03-21 18h41.05.266844 -0300,
0,0,0,0,6,0,6,0,9,0,9,0,,,,,,,,,,,,,,,,,,,,,,,,,20.03627459600102,,,,,,,,,,,,,,,,,,,,,,,,,20.021750505000455,20.021772236999823,20.02177850999942,20.021791196000777,,,,,,,,,,,,,,,,,,,,,,,,,,,,,,,,,,,,,,,,,,,,,,,,,,577530,001,2024-03-21_18h40.54.611,Test1,2023.2.3,None,2024-03-21 18h41.05.266844 -0300,
0,0,0,0,6,0,6,0,,,,,,,,,,,,,,,,,,,,,,,,,,,,,,,,,,,,,,,,,,,,,,,,,,,,,,,,,,,,,,,,,,,,,,,,,,,,,,,,,,,,,,,,,,,,,,,,,,,,,,,,,,,577530,001,2024-03-21_18h40.54.611,Test1,2023.2.3,None,2024-03-21 18h41.05.266844 -0300,
0,0,0,0,7,0,7,0,0,0,0,0,,,,,,,,,,,,,,,,,,,,,,,,,20.03627459600102,,,,,,,,,,,,,,,,,,,,,,,,,20.022349570001097,20.022375648999514,20.022382369999832,20.022395979000066,,,,,,,,,,,,,,,,,,,,,,,,,,,,,,,,,,,,,,,,,,,,,,,,,,577530,001,2024-03-21_18h40.54.611,Test1,2023.2.3,None,2024-03-21 18h41.05.266844 -0300,
0,0,0,0,7,0,7,0,1,0,1,0,,,,,,,,,,,,,,,,,,,,,,,,,20.03627459600102,,,,,,,,,,,,,,,,,,,,,,,,,20.02254137499949,20.022563902999536,20.022570295999685,20.02258306300064,,,,,,,,,,,,,,,,,,,,,,,,,,,,,,,,,,,,,,,,,,,,,,,,,,577530,001,2024-03-21_18h40.54.611,Test1,2023.2.3,None,2024-03-21 18h41.05.266844 -0300,
0,0,0,0,7,0,7,0,2,0,2,0,,,,,,,,,,,,,,,,,,,,,,,,,20.03627459600102,,,,,,,,,,,,,,,,,,,,,,,,,20.02272436400017,20.02274629600106,20.02275257400106,20.022765153000364,,,,,,,,,,,,,,,,,,,,,,,,,,,,,,,,,,,,,,,,,,,,,,,,,,577530,001,2024-03-21_18h40.54.611,Test1,2023.2.3,None,2024-03-21 18h41.05.266844 -0300,
0,0,0,0,7,0,7,0,3,0,3,0,,,,,,,,,,,,,,,,,,,,,,,,,20.03627459600102,,,,,,,,,,,,,,,,,,,,,,,,,20.0229085330011,20.022931306999453,20.022937583000385,20.022950537000725,,,,,,,,,,,,,,,,,,,,,,,,,,,,,,,,,,,,,,,,,,,,,,,,,,577530,001,2024-03-21_18h40.54.611,Test1,2023.2.3,None,2024-03-21 18h41.05.266844 -0300,
0,0,0,0,7,0,7,0,4,0,4,0,,,,,,,,,,,,,,,,,,,,,,,,,20.03627459600102,,,,,,,,,,,,,,,,,,,,,,,,,20.0230957269996,20.02311746400119,20.023123864999434,20.023136363999583,,,,,,,,,,,,,,,,,,,,,,,,,,,,,,,,,,,,,,,,,,,,,,,,,,577530,001,2024-03-21_18h40.54.611,Test1,2023.2.3,None,2024-03-21 18h41.05.266844 -0300,
0,0,0,0,7,0,7,0,5,0,5,0,,,,,,,,,,,,,,,,,,,,,,,,,20.03627459600102,,,,,,,,,,,,,,,,,,,,,,,,,20.023322754999754,20.023346181000306,20.023352606000117,20.023365600000034,,,,,,,,,,,,,,,,,,,,,,,,,,,,,,,,,,,,,,,,,,,,,,,,,,577530,001,2024-03-21_18h40.54.611,Test1,2023.2.3,None,2024-03-21 18h41.05.266844 -0300,
0,0,0,0,7,0,7,0,6,0,6,0,,,,,,,,,,,,,,,,,,,,,,,,,20.03627459600102,,,,,,,,,,,,,,,,,,,,,,,,,20.02351069100041,20.02353200700054,20.023538118999568,20.023551268999654,,,,,,,,,,,,,,,,,,,,,,,,,,,,,,,,,,,,,,,,,,,,,,,,,,577530,001,2024-03-21_18h40.54.611,Test1,2023.2.3,None,2024-03-21 18h41.05.266844 -0300,
0,0,0,0,7,0,7,0,7,0,7,0,,,,,,,,,,,,,,,,,,,,,,,,,20.03627459600102,,,,,,,,,,,,,,,,,,,,,,,,,20.023696972000835,20.023719443001028,20.023725638000542,20.023738539999613,,,,,,,,,,,,,,,,,,,,,,,,,,,,,,,,,,,,,,,,,,,,,,,,,,577530,001,2024-03-21_18h40.54.611,Test1,2023.2.3,None,2024-03-21 18h41.05.266844 -0300,
0,0,0,0,7,0,7,0,8,0,8,0,,,,,,,,,,,,,,,,,,,,,,,,,20.03627459600102,,,,,,,,,,,,,,,,,,,,,,,,,20.023888378000265,20.023908911000035,20.023914909001178,20.023926996000228,,,,,,,,,,,,,,,,,,,,,,,,,,,,,,,,,,,,,,,,,,,,,,,,,,577530,001,2024-03-21_18h40.54.611,Test1,2023.2.3,None,2024-03-21 18h41.05.266844 -0300,
0,0,0,0,7,0,7,0,9,0,9,0,,,,,,,,,,,,,,,,,,,,,,,,,20.03627459600102,,,,,,,,,,,,,,,,,,,,,,,,,20.024060387000645,20.024081716001092,20.024087806999887,20.024100090000502,,,,,,,,,,,,,,,,,,,,,,,,,,,,,,,,,,,,,,,,,,,,,,,,,,577530,001,2024-03-21_18h40.54.611,Test1,2023.2.3,None,2024-03-21 18h41.05.266844 -0300,
0,0,0,0,7,0,7,0,,,,,,,,,,,,,,,,,,,,,,,,,,,,,,,,,,,,,,,,,,,,,,,,,,,,,,,,,,,,,,,,,,,,,,,,,,,,,,,,,,,,,,,,,,,,,,,,,,,,,,,,,,,577530,001,2024-03-21_18h40.54.611,Test1,2023.2.3,None,2024-03-21 18h41.05.266844 -0300,
0,0,0,0,8,0,8,0,0,0,0,0,,,,,,,,,,,,,,,,,,,,,,,,,20.03627459600102,,,,,,,,,,,,,,,,,,,,,,,,,20.02459746400018,20.02462284000103,20.024629536001157,20.02464278700063,,,,,,,,,,,,,,,,,,,,,,,,,,,,,,,,,,,,,,,,,,,,,,,,,,577530,001,2024-03-21_18h40.54.611,Test1,2023.2.3,None,2024-03-21 18h41.05.266844 -0300,
0,0,0,0,8,0,8,0,1,0,1,0,,,,,,,,,,,,,,,,,,,,,,,,,20.03627459600102,,,,,,,,,,,,,,,,,,,,,,,,,20.024786719000986,20.024809165999613,20.024815386001137,20.02482787200097,,,,,,,,,,,,,,,,,,,,,,,,,,,,,,,,,,,,,,,,,,,,,,,,,,577530,001,2024-03-21_18h40.54.611,Test1,2023.2.3,None,2024-03-21 18h41.05.266844 -0300,
0,0,0,0,8,0,8,0,2,0,2,0,,,,,,,,,,,,,,,,,,,,,,,,,20.03627459600102,,,,,,,,,,,,,,,,,,,,,,,,,20.024975377000374,20.025000604000525,20.0250068309997,20.02501949100042,,,,,,,,,,,,,,,,,,,,,,,,,,,,,,,,,,,,,,,,,,,,,,,,,,577530,001,2024-03-21_18h40.54.611,Test1,2023.2.3,None,2024-03-21 18h41.05.266844 -0300,
0,0,0,0,8,0,8,0,3,0,3,0,,,,,,,,,,,,,,,,,,,,,,,,,20.03627459600102,,,,,,,,,,,,,,,,,,,,,,,,,20.025156312000036,20.02517734399953,20.025183339999785,20.02519555300023,,,,,,,,,,,,,,,,,,,,,,,,,,,,,,,,,,,,,,,,,,,,,,,,,,577530,001,2024-03-21_18h40.54.611,Test1,2023.2.3,None,2024-03-21 18h41.05.266844 -0300,
0,0,0,0,8,0,8,0,4,0,4,0,,,,,,,,,,,,,,,,,,,,,,,,,20.03627459600102,,,,,,,,,,,,,,,,,,,,,,,,,20.025336024000353,20.025357151000208,20.025363280999954,20.025375852999787,,,,,,,,,,,,,,,,,,,,,,,,,,,,,,,,,,,,,,,,,,,,,,,,,,577530,001,2024-03-21_18h40.54.611,Test1,2023.2.3,None,2024-03-21 18h41.05.266844 -0300,
0,0,0,0,8,0,8,0,5,0,5,0,,,,,,,,,,,,,,,,,,,,,,,,,20.03627459600102,,,,,,,,,,,,,,,,,,,,,,,,,20.025510231000226,20.025534350999806,20.025540471000568,20.02555599200059,,,,,,,,,,,,,,,,,,,,,,,,,,,,,,,,,,,,,,,,,,,,,,,,,,577530,001,2024-03-21_18h40.54.611,Test1,2023.2.3,None,2024-03-21 18h41.05.266844 -0300,
0,0,0,0,8,0,8,0,6,0,6,0,,,,,,,,,,,,,,,,,,,,,,,,,20.03627459600102,,,,,,,,,,,,,,,,,,,,,,,,,20.025695100999656,20.02571570100008,20.025721710000653,20.02573410200057,,,,,,,,,,,,,,,,,,,,,,,,,,,,,,,,,,,,,,,,,,,,,,,,,,577530,001,2024-03-21_18h40.54.611,Test1,2023.2.3,None,2024-03-21 18h41.05.266844 -0300,
0,0,0,0,8,0,8,0,7,0,7,0,,,,,,,,,,,,,,,,,,,,,,,,,20.03627459600102,,,,,,,,,,,,,,,,,,,,,,,,,20.025876517000142,20.025897323999743,20.025903177000146,20.025915633001205,,,,,,,,,,,,,,,,,,,,,,,,,,,,,,,,,,,,,,,,,,,,,,,,,,577530,001,2024-03-21_18h40.54.611,Test1,2023.2.3,None,2024-03-21 18h41.05.266844 -0300,
0,0,0,0,8,0,8,0,8,0,8,0,,,,,,,,,,,,,,,,,,,,,,,,,20.03627459600102,,,,,,,,,,,,,,,,,,,,,,,,,20.026049080999655,20.026069744999404,20.026075609001055,20.026087475000168,,,,,,,,,,,,,,,,,,,,,,,,,,,,,,,,,,,,,,,,,,,,,,,,,,577530,001,2024-03-21_18h40.54.611,Test1,2023.2.3,None,2024-03-21 18h41.05.266844 -0300,
0,0,0,0,8,0,8,0,9,0,9,0,,,,,,,,,,,,,,,,,,,,,,,,,20.03627459600102,,,,,,,,,,,,,,,,,,,,,,,,,20.02622584100027,20.026247312000123,20.026253354999426,20.026265693000823,,,,,,,,,,,,,,,,,,,,,,,,,,,,,,,,,,,,,,,,,,,,,,,,,,577530,001,2024-03-21_18h40.54.611,Test1,2023.2.3,None,2024-03-21 18h41.05.266844 -0300,
0,0,0,0,8,0,8,0,,,,,,,,,,,,,,,,,,,,,,,,,,,,,,,,,,,,,,,,,,,,,,,,,,,,,,,,,,,,,,,,,,,,,,,,,,,,,,,,,,,,,,,,,,,,,,,,,,,,,,,,,,,577530,001,2024-03-21_18h40.54.611,Test1,2023.2.3,None,2024-03-21 18h41.05.266844 -0300,
0,0,0,0,9,0,9,0,0,0,0,0,,,,,,,,,,,,,,,,,,,,,,,,,20.03627459600102,,,,,,,,,,,,,,,,,,,,,,,,,20.026751020999654,20.026775382999404,20.02678190900042,20.026794749001056,,,,,,,,,,,,,,,,,,,,,,,,,,,,,,,,,,,,,,,,,,,,,,,,,,577530,001,2024-03-21_18h40.54.611,Test1,2023.2.3,None,2024-03-21 18h41.05.266844 -0300,
0,0,0,0,9,0,9,0,1,0,1,0,,,,,,,,,,,,,,,,,,,,,,,,,20.03627459600102,,,,,,,,,,,,,,,,,,,,,,,,,20.0269401630012,20.026962521000314,20.026968735999617,20.026981257000443,,,,,,,,,,,,,,,,,,,,,,,,,,,,,,,,,,,,,,,,,,,,,,,,,,577530,001,2024-03-21_18h40.54.611,Test1,2023.2.3,None,2024-03-21 18h41.05.266844 -0300,
0,0,0,0,9,0,9,0,2,0,2,0,,,,,,,,,,,,,,,,,,,,,,,,,20.03627459600102,,,,,,,,,,,,,,,,,,,,,,,,,20.02711949100012,20.027141353000843,20.027147472999786,20.02715989799981,,,,,,,,,,,,,,,,,,,,,,,,,,,,,,,,,,,,,,,,,,,,,,,,,,577530,001,2024-03-21_18h40.54.611,Test1,2023.2.3,None,2024-03-21 18h41.05.266844 -0300,
0,0,0,0,9,0,9,0,3,0,3,0,,,,,,,,,,,,,,,,,,,,,,,,,20.03627459600102,,,,,,,,,,,,,,,,,,,,,,,,,20.027306095000313,20.02732663400093,20.027332571000443,20.027344636000635,,,,,,,,,,,,,,,,,,,,,,,,,,,,,,,,,,,,,,,,,,,,,,,,,,577530,001,2024-03-21_18h40.54.611,Test1,2023.2.3,None,2024-03-21 18h41.05.266844 -0300,
0,0,0,0,9,0,9,0,4,0,4,0,,,,,,,,,,,,,,,,,,,,,,,,,20.03627459600102,,,,,,,,,,,,,,,,,,,,,,,,,20.0274835600012,20.027504465000675,20.027510521000295,20.027522772999873,,,,,,,,,,,,,,,,,,,,,,,,,,,,,,,,,,,,,,,,,,,,,,,,,,577530,001,2024-03-21_18h40.54.611,Test1,2023.2.3,None,2024-03-21 18h41.05.266844 -0300,
0,0,0,0,9,0,9,0,5,0,5,0,,,,,,,,,,,,,,,,,,,,,,,,,20.03627459600102,,,,,,,,,,,,,,,,,,,,,,,,,20.027661686999636,20.02768308099985,20.0276891120011,20.02770143499947,,,,,,,,,,,,,,,,,,,,,,,,,,,,,,,,,,,,,,,,,,,,,,,,,,577530,001,2024-03-21_18h40.54.611,Test1,2023.2.3,None,2024-03-21 18h41.05.266844 -0300,
0,0,0,0,9,0,9,0,6,0,6,0,,,,,,,,,,,,,,,,,,,,,,,,,20.03627459600102,,,,,,,,,,,,,,,,,,,,,,,,,20.027840308001032,20.027861032000146,20.027867036000316,20.027879376000783,,,,,,,,,,,,,,,,,,,,,,,,,,,,,,,,,,,,,,,,,,,,,,,,,,577530,001,2024-03-21_18h40.54.611,Test1,2023.2.3,None,2024-03-21 18h41.05.266844 -0300,
0,0,0,0,9,0,9,0,7,0,7,0,,,,,,,,,,,,,,,,,,,,,,,,,20.03627459600102,,,,,,,,,,,,,,,,,,,,,,,,,20.028019035000398,20.02803946399945,20.0280455230004,20.028057878000254,,,,,,,,,,,,,,,,,,,,,,,,,,,,,,,,,,,,,,,,,,,,,,,,,,577530,001,2024-03-21_18h40.54.611,Test1,2023.2.3,None,2024-03-21 18h41.05.266844 -0300,
0,0,0,0,9,0,9,0,8,0,8,0,,,,,,,,,,,,,,,,,,,,,,,,,20.03627459600102,,,,,,,,,,,,,,,,,,,,,,,,,20.028202572000737,20.02822345200002,20.02822955800002,20.028241676000107,,,,,,,,,,,,,,,,,,,,,,,,,,,,,,,,,,,,,,,,,,,,,,,,,,577530,001,2024-03-21_18h40.54.611,Test1,2023.2.3,None,2024-03-21 18h41.05.266844 -0300,
0,0,0,0,9,0,9,0,9,0,9,0,,,,,,,,,,,,,,,,,,,,,,,,,20.03627459600102,,,,,,,,,,,,,,,,,,,,,,,,,20.028375481000694,20.0283962980011,20.028402365000147,20.02841435099981,,,,,,,,,,,,,,,,,,,,,,,,,,,,,,,,,,,,,,,,,,,,,,,,,,577530,001,2024-03-21_18h40.54.611,Test1,2023.2.3,None,2024-03-21 18h41.05.266844 -0300,
0,0,0,0,9,0,9,0,,,,,,,,,,,,,,,,,,,,,,,,,,,,,,,,,,,,,,,,,,,,,,,,,,,,,,,,,,,,,,,,,,,,,,,,,,,,,,,,,,,,,,,,,,,,,,,,,,,,,,,,,,,577530,001,2024-03-21_18h40.54.611,Test1,2023.2.3,None,2024-03-21 18h41.05.266844 -0300,
0,0,0,0,,,,,,,,,0,0,0,0,0,0,0,0,,,,,,,,,,,,,,,,,20.03627459600102,,,,,,,,,,,,,,,,,,,,,,,,,,,,,20.02903090700056,20.03627459600102,20.03627459600102,20.03627459600102,20.03627459600102,25.040755674001048,25.04077744999995,25.057326426000145,26.015384412999992,,,,,,,,,,,,,,,,,,,,,,,,,,,,,,,,,,,,,,,,,577530,001,2024-03-21_18h40.54.611,Test1,2023.2.3,None,2024-03-21 18h41.05.266844 -0300,
0,0,0,0,,,,,,,,,0,0,0,0,,,,,,,,,,,,,,,,,,,,,,,,,,,,,,,,,,,,,,,,,,,,,,,,,,,,,,,,,,,,,,,,,,,,,,,,,,,,,,,,,,,,,,,,,,,,,,,,,,,577530,001,2024-03-21_18h40.54.611,Test1,2023.2.3,None,2024-03-21 18h41.05.266844 -0300,
0,0,0,0,,,,,,,,,,,,,,,,,0,0,0,0,0,0,0,0,,,,,,,,,26.06544560200018,,,,,,,,,,,,,,,,,,,,,,,,,,,,,,,,,,,,,,26.017064871999537,26.01714791300037,26.01716168100029,26.017187027000546,,,,,,,,,,,,,,,,,,,,,,,,,,,,,,,,,,,,,577530,001,2024-03-21_18h40.54.611,Test1,2023.2.3,None,2024-03-21 18h41.05.266844 -0300,
0,0,0,0,,,,,,,,,,,,,,,,,0,0,0,0,1,0,1,0,,,,,,,,,26.06544560200018,,,,,,,,,,,,,,,,,,,,,,,,,,,,,,,,,,,,,,26.01745853200009,26.01751812400107,26.01753030100008,26.017552724999405,,,,,,,,,,,,,,,,,,,,,,,,,,,,,,,,,,,,,577530,001,2024-03-21_18h40.54.611,Test1,2023.2.3,None,2024-03-21 18h41.05.266844 -0300,
0,0,0,0,,,,,,,,,,,,,,,,,0,0,0,0,2,0,2,0,,,,,,,,,26.06544560200018,,,,,,,,,,,,,,,,,,,,,,,,,,,,,,,,,,,,,,26.017810585000916,26.019898885000657,26.019910102000722,26.019929404999857,,,,,,,,,,,,,,,,,,,,,,,,,,,,,,,,,,,,,577530,001,2024-03-21_18h40.54.611,Test1,2023.2.3,None,2024-03-21 18h41.05.266844 -0300,
0,0,0,0,,,,,,,,,,,,,,,,,0,0,0,0,3,0,3,0,,,,,,,,,26.06544560200018,,,,,,,,,,,,,,,,,,,,,,,,,,,,,,,,,,,,,,26.020165420999547,26.02021395600059,26.020224005000273,26.020242111000698,,,,,,,,,,,,,,,,,,,,,,,,,,,,,,,,,,,,,577530,001,2024-03-21_18h40.54.611,Test1,2023.2.3,None,2024-03-21 18h41.05.266844 -0300,
0,0,0,0,,,,,,,,,,,,,,,,,0,0,0,0,4,0,4,0,,,,,,,,,26.06544560200018,,,,,,,,,,,,,,,,,,,,,,,,,,,,,,,,,,,,,,26.020457812999666,26.020505442000285,26.020515071000773,26.020532552000077,,,,,,,,,,,,,,,,,,,,,,,,,,,,,,,,,,,,,577530,001,2024-03-21_18h40.54.611,Test1,2023.2.3,None,2024-03-21 18h41.05.266844 -0300,
0,0,0,0,,,,,,,,,,,,,,,,,0,0,0,0,5,0,5,0,,,,,,,,,26.06544560200018,,,,,,,,,,,,,,,,,,,,,,,,,,,,,,,,,,,,,,26.02074336000078,26.020825311999943,26.020843170999797,26.02090819499972,,,,,,,,,,,,,,,,,,,,,,,,,,,,,,,,,,,,,577530,001,2024-03-21_18h40.54.611,Test1,2023.2.3,None,2024-03-21 18h41.05.266844 -0300,
0,0,0,0,,,,,,,,,,,,,,,,,0,0,0,0,6,0,6,0,,,,,,,,,26.06544560200018,,,,,,,,,,,,,,,,,,,,,,,,,,,,,,,,,,,,,,26.021137604000614,26.02118592700026,26.021196067000346,26.02121428600003,,,,,,,,,,,,,,,,,,,,,,,,,,,,,,,,,,,,,577530,001,2024-03-21_18h40.54.611,Test1,2023.2.3,None,2024-03-21 18h41.05.266844 -0300,
0,0,0,0,,,,,,,,,,,,,,,,,0,0,0,0,7,0,7,0,,,,,,,,,26.06544560200018,,,,,,,,,,,,,,,,,,,,,,,,,,,,,,,,,,,,,,26.02142512499995,26.02147086700097,26.021480765999513,26.02149861699945,,,,,,,,,,,,,,,,,,,,,,,,,,,,,,,,,,,,,577530,001,2024-03-21_18h40.54.611,Test1,2023.2.3,None,2024-03-21 18h41.05.266844 -0300,
0,0,0,0,,,,,,,,,,,,,,,,,0,0,0,0,8,0,8,0,,,,,,,,,26.06544560200018,,,,,,,,,,,,,,,,,,,,,,,,,,,,,,,,,,,,,,26.021706994999477,26.02175415900092,26.021763902001112,26.021781749001093,,,,,,,,,,,,,,,,,,,,,,,,,,,,,,,,,,,,,577530,001,2024-03-21_18h40.54.611,Test1,2023.2.3,None,2024-03-21 18h41.05.266844 -0300,
0,0,0,0,,,,,,,,,,,,,,,,,0,0,0,0,9,0,9,0,,,,,,,,,26.06544560200018,,,,,,,,,,,,,,,,,,,,,,,,,,,,,,,,,,,,,,26.021986404000927,26.022046486999898,26.022056588999476,26.022075327000493,,,,,,,,,,,,,,,,,,,,,,,,,,,,,,,,,,,,,577530,001,2024-03-21_18h40.54.611,Test1,2023.2.3,None,2024-03-21 18h41.05.266844 -0300,
0,0,0,0,,,,,,,,,,,,,,,,,0,0,0,0,,,,,,,,,,,,,,,,,,,,,,,,,,,,,,,,,,,,,,,,,,,,,,,,,,,,,,,,,,,,,,,,,,,,,,,,,,,,,,,,,,,,,,,,,,,577530,001,2024-03-21_18h40.54.611,Test1,2023.2.3,None,2024-03-21 18h41.05.266844 -0300,
0,0,0,0,,,,,,,,,,,,,,,,,1,0,1,0,0,0,0,0,,,,,,,,,26.06544560200018,,,,,,,,,,,,,,,,,,,,,,,,,,,,,,,,,,,,,,26.0231124969996,26.02320136200069,26.023215233999508,26.023237432000315,,,,,,,,,,,,,,,,,,,,,,,,,,,,,,,,,,,,,577530,001,2024-03-21_18h40.54.611,Test1,2023.2.3,None,2024-03-21 18h41.05.266844 -0300,
0,0,0,0,,,,,,,,,,,,,,,,,1,0,1,0,1,0,1,0,,,,,,,,,26.06544560200018,,,,,,,,,,,,,,,,,,,,,,,,,,,,,,,,,,,,,,26.023499987000832,26.02354895099961,26.02355913199972,26.023577339999974,,,,,,,,,,,,,,,,,,,,,,,,,,,,,,,,,,,,,577530,001,2024-03-21_18h40.54.611,Test1,2023.2.3,None,2024-03-21 18h41.05.266844 -0300,
0,0,0,0,,,,,,,,,,,,,,,,,1,0,1,0,2,0,2,0,,,,,,,,,26.06544560200018,,,,,,,,,,,,,,,,,,,,,,,,,,,,,,,,,,,,,,26.02392241800044,26.023982198999875,26.023993213000722,26.024012506000872,,,,,,,,,,,,,,,,,,,,,,,,,,,,,,,,,,,,,577530,001,2024-03-21_18h40.54.611,Test1,2023.2.3,None,2024-03-21 18h41.05.266844 -0300,
0,0,0,0,,,,,,,,,,,,,,,,,1,0,1,0,3,0,3,0,,,,,,,,,26.06544560200018,,,,,,,,,,,,,,,,,,,,,,,,,,,,,,,,,,,,,,26.0242522919998,26.024297734000356,26.024307100000442,26.024323579000338,,,,,,,,,,,,,,,,,,,,,,,,,,,,,,,,,,,,,577530,001,2024-03-21_18h40.54.611,Test1,2023.2.3,None,2024-03-21 18h41.05.266844 -0300,
0,0,0,0,,,,,,,,,,,,,,,,,1,0,1,0,4,0,4,0,,,,,,,,,26.06544560200018,,,,,,,,,,,,,,,,,,,,,,,,,,,,,,,,,,,,,,26.02452107300087,26.024563082000896,26.024571881000156,26.0245882800009,,,,,,,,,,,,,,,,,,,,,,,,,,,,,,,,,,,,,577530,001,2024-03-21_18h40.54.611,Test1,2023.2.3,None,2024-03-21 18h41.05.266844 -0300,
0,0,0,0,,,,,,,,,,,,,,,,,1,0,1,0,5,0,5,0,,,,,,,,,26.06544560200018,,,,,,,,,,,,,,,,,,,,,,,,,,,,,,,,,,,,,,26.024788577000436,26.024838077999448,26.024847222999597,26.02486397299981,,,,,,,,,,,,,,,,,,,,,,,,,,,,,,,,,,,,,577530,001,2024-03-21_18h40.54.611,Test1,2023.2.3,None,2024-03-21 18h41.05.266844 -0300,
0,0,0,0,,,,,,,,,,,,,,,,,1,0,1,0,6,0,6,0,,,,,,,,,26.06544560200018,,,,,,,,,,,,,,,,,,,,,,,,,,,,,,,,,,,,,,26.025061043999813,26.025104980000833,26.025113895000686,26.025130001000434,,,,,,,,,,,,,,,,,,,,,,,,,,,,,,,,,,,,,577530,001,2024-03-21_18h40.54.611,Test1,2023.2.3,None,2024-03-21 18h41.05.266844 -0300,
0,0,0,0,,,,,,,,,,,,,,,,,1,0,1,0,7,0,7,0,,,,,,,,,26.06544560200018,,,,,,,,,,,,,,,,,,,,,,,,,,,,,,,,,,,,,,26.025324913000077,26.02536670200061,26.025375361999977,26.02539156199964,,,,,,,,,,,,,,,,,,,,,,,,,,,,,,,,,,,,,577530,001,2024-03-21_18h40.54.611,Test1,2023.2.3,None,2024-03-21 18h41.05.266844 -0300,
0,0,0,0,,,,,,,,,,,,,,,,,1,0,1,0,8,0,8,0,,,,,,,,,26.06544560200018,,,,,,,,,,,,,,,,,,,,,,,,,,,,,,,,,,,,,,26.025587140000425,26.025628907000282,26.025637693001045,26.025653681999756,,,,,,,,,,,,,,,,,,,,,,,,,,,,,,,,,,,,,577530,001,2024-03-21_18h40.54.611,Test1,2023.2.3,None,2024-03-21 18h41.05.266844 -0300,
0,0,0,0,,,,,,,,,,,,,,,,,1,0,1,0,9,0,9,0,,,,,,,,,26.06544560200018,,,,,,,,,,,,,,,,,,,,,,,,,,,,,,,,,,,,,,26.025839949999863,26.02588324200042,26.0258918920008,26.025907963999998,,,,,,,,,,,,,,,,,,,,,,,,,,,,,,,,,,,,,577530,001,2024-03-21_18h40.54.611,Test1,2023.2.3,None,2024-03-21 18h41.05.266844 -0300,
0,0,0,0,,,,,,,,,,,,,,,,,1,0,1,0,,,,,,,,,,,,,,,,,,,,,,,,,,,,,,,,,,,,,,,,,,,,,,,,,,,,,,,,,,,,,,,,,,,,,,,,,,,,,,,,,,,,,,,,,,,577530,001,2024-03-21_18h40.54.611,Test1,2023.2.3,None,2024-03-21 18h41.05.266844 -0300,
0,0,0,0,,,,,,,,,,,,,,,,,2,0,2,0,0,0,0,0,,,,,,,,,26.06544560200018,,,,,,,,,,,,,,,,,,,,,,,,,,,,,,,,,,,,,,26.026706147000368,26.0267600340012,26.026769832000355,26.026787192000484,,,,,,,,,,,,,,,,,,,,,,,,,,,,,,,,,,,,,577530,001,2024-03-21_18h40.54.611,Test1,2023.2.3,None,2024-03-21 18h41.05.266844 -0300,
0,0,0,0,,,,,,,,,,,,,,,,,2,0,2,0,1,0,1,0,,,,,,,,,26.06544560200018,,,,,,,,,,,,,,,,,,,,,,,,,,,,,,,,,,,,,,26.026983873000063,26.02703269000085,26.027041895000366,26.02705831700041,,,,,,,,,,,,,,,,,,,,,,,,,,,,,,,,,,,,,577530,001,2024-03-21_18h40.54.611,Test1,2023.2.3,None,2024-03-21 18h41.05.266844 -0300,
0,0,0,0,,,,,,,,,,,,,,,,,2,0,2,0,2,0,2,0,,,,,,,,,26.06544560200018,,,,,,,,,,,,,,,,,,,,,,,,,,,,,,,,,,,,,,26.02724882700022,26.027291005000734,26.0272998140008,26.027316157000314,,,,,,,,,,,,,,,,,,,,,,,,,,,,,,,,,,,,,577530,001,2024-03-21_18h40.54.611,Test1,2023.2.3,None,2024-03-21 18h41.05.266844 -0300,
0,0,0,0,,,,,,,,,,,,,,,,,2,0,2,0,3,0,3,0,,,,,,,,,26.06544560200018,,,,,,,,,,,,,,,,,,,,,,,,,,,,,,,,,,,,,,26.02751083700059,26.02755854300085,26.027567757000725,26.0277093170007,,,,,,,,,,,,,,,,,,,,,,,,,,,,,,,,,,,,,577530,001,2024-03-21_18h40.54.611,Test1,2023.2.3,None,2024-03-21 18h41.05.266844 -0300,
0,0,0,0,,,,,,,,,,,,,,,,,2,0,2,0,4,0,4,0,,,,,,,,,26.06544560200018,,,,,,,,,,,,,,,,,,,,,,,,,,,,,,,,,,,,,,26.027912988000026,26.027956066000115,26.02796492500056,26.027981377001197,,,,,,,,,,,,,,,,,,,,,,,,,,,,,,,,,,,,,577530,001,2024-03-21_18h40.54.611,Test1,2023.2.3,None,2024-03-21 18h41.05.266844 -0300,
0,0,0,0,,,,,,,,,,,,,,,,,2,0,2,0,5,0,5,0,,,,,,,,,26.06544560200018,,,,,,,,,,,,,,,,,,,,,,,,,,,,,,,,,,,,,,26.028171771000416,26.028220625999893,26.02822973900038,26.028245888999663,,,,,,,,,,,,,,,,,,,,,,,,,,,,,,,,,,,,,577530,001,2024-03-21_18h40.54.611,Test1,2023.2.3,None,2024-03-21 18h41.05.266844 -0300,
0,0,0,0,,,,,,,,,,,,,,,,,2,0,2,0,6,0,6,0,,,,,,,,,26.06544560200018,,,,,,,,,,,,,,,,,,,,,,,,,,,,,,,,,,,,,,26.028452008000386,26.02849341000001,26.028501947001132,26.028517577000457,,,,,,,,,,,,,,,,,,,,,,,,,,,,,,,,,,,,,577530,001,2024-03-21_18h40.54.611,Test1,2023.2.3,None,2024-03-21 18h41.05.266844 -0300,
0,0,0,0,,,,,,,,,,,,,,,,,2,0,2,0,7,0,7,0,,,,,,,,,26.06544560200018,,,,,,,,,,,,,,,,,,,,,,,,,,,,,,,,,,,,,,26.028701164999802,26.028750572000718,26.028759298000296,26.02877479699964,,,,,,,,,,,,,,,,,,,,,,,,,,,,,,,,,,,,,577530,001,2024-03-21_18h40.54.611,Test1,2023.2.3,None,2024-03-21 18h41.05.266844 -0300,
0,0,0,0,,,,,,,,,,,,,,,,,2,0,2,0,8,0,8,0,,,,,,,,,26.06544560200018,,,,,,,,,,,,,,,,,,,,,,,,,,,,,,,,,,,,,,26.028954546000023,26.028994442000112,26.029002868001044,26.02901831300005,,,,,,,,,,,,,,,,,,,,,,,,,,,,,,,,,,,,,577530,001,2024-03-21_18h40.54.611,Test1,2023.2.3,None,2024-03-21 18h41.05.266844 -0300,
0,0,0,0,,,,,,,,,,,,,,,,,2,0,2,0,9,0,9,0,,,,,,,,,26.06544560200018,,,,,,,,,,,,,,,,,,,,,,,,,,,,,,,,,,,,,,26.02920144699965,26.029241325999465,26.029249860001073,26.0292653230008,,,,,,,,,,,,,,,,,,,,,,,,,,,,,,,,,,,,,577530,001,2024-03-21_18h40.54.611,Test1,2023.2.3,None,2024-03-21 18h41.05.266844 -0300,
0,0,0,0,,,,,,,,,,,,,,,,,2,0,2,0,,,,,,,,,,,,,,,,,,,,,,,,,,,,,,,,,,,,,,,,,,,,,,,,,,,,,,,,,,,,,,,,,,,,,,,,,,,,,,,,,,,,,,,,,,,577530,001,2024-03-21_18h40.54.611,Test1,2023.2.3,None,2024-03-21 18h41.05.266844 -0300,
0,0,0,0,,,,,,,,,,,,,,,,,3,0,3,0,0,0,0,0,,,,,,,,,26.06544560200018,,,,,,,,,,,,,,,,,,,,,,,,,,,,,,,,,,,,,,26.030009224999958,26.030055725999773,26.030065277000176,26.03008188700005,,,,,,,,,,,,,,,,,,,,,,,,,,,,,,,,,,,,,577530,001,2024-03-21_18h40.54.611,Test1,2023.2.3,None,2024-03-21 18h41.05.266844 -0300,
0,0,0,0,,,,,,,,,,,,,,,,,3,0,3,0,1,0,1,0,,,,,,,,,26.06544560200018,,,,,,,,,,,,,,,,,,,,,,,,,,,,,,,,,,,,,,26.030273287000455,26.030314610999994,26.03032329599955,26.030339130000357,,,,,,,,,,,,,,,,,,,,,,,,,,,,,,,,,,,,,577530,001,2024-03-21_18h40.54.611,Test1,2023.2.3,None,2024-03-21 18h41.05.266844 -0300,
0,0,0,0,,,,,,,,,,,,,,,,,3,0,3,0,2,0,2,0,,,,,,,,,26.06544560200018,,,,,,,,,,,,,,,,,,,,,,,,,,,,,,,,,,,,,,26.030528987999787,26.030570447001082,26.030582757000957,26.03059899100117,,,,,,,,,,,,,,,,,,,,,,,,,,,,,,,,,,,,,577530,001,2024-03-21_18h40.54.611,Test1,2023.2.3,None,2024-03-21 18h41.05.266844 -0300,
0,0,0,0,,,,,,,,,,,,,,,,,3,0,3,0,3,0,3,0,,,,,,,,,26.06544560200018,,,,,,,,,,,,,,,,,,,,,,,,,,,,,,,,,,,,,,26.030781536001086,26.030826324000373,26.03083515199978,26.030850348000968,,,,,,,,,,,,,,,,,,,,,,,,,,,,,,,,,,,,,577530,001,2024-03-21_18h40.54.611,Test1,2023.2.3,None,2024-03-21 18h41.05.266844 -0300,
0,0,0,0,,,,,,,,,,,,,,,,,3,0,3,0,4,0,4,0,,,,,,,,,26.06544560200018,,,,,,,,,,,,,,,,,,,,,,,,,,,,,,,,,,,,,,26.031032586000947,26.031076331000804,26.03108485300072,26.031101976001082,,,,,,,,,,,,,,,,,,,,,,,,,,,,,,,,,,,,,577530,001,2024-03-21_18h40.54.611,Test1,2023.2.3,None,2024-03-21 18h41.05.266844 -0300,
0,0,0,0,,,,,,,,,,,,,,,,,3,0,3,0,5,0,5,0,,,,,,,,,26.06544560200018,,,,,,,,,,,,,,,,,,,,,,,,,,,,,,,,,,,,,,26.031287870000597,26.031329659999756,26.031341793999673,26.031358886000817,,,,,,,,,,,,,,,,,,,,,,,,,,,,,,,,,,,,,577530,001,2024-03-21_18h40.54.611,Test1,2023.2.3,None,2024-03-21 18h41.05.266844 -0300,
0,0,0,0,,,,,,,,,,,,,,,,,3,0,3,0,6,0,6,0,,,,,,,,,26.06544560200018,,,,,,,,,,,,,,,,,,,,,,,,,,,,,,,,,,,,,,26.03153978500086,26.031580635000864,26.03158903500116,26.03160553000089,,,,,,,,,,,,,,,,,,,,,,,,,,,,,,,,,,,,,577530,001,2024-03-21_18h40.54.611,Test1,2023.2.3,None,2024-03-21 18h41.05.266844 -0300,
0,0,0,0,,,,,,,,,,,,,,,,,3,0,3,0,7,0,7,0,,,,,,,,,26.06544560200018,,,,,,,,,,,,,,,,,,,,,,,,,,,,,,,,,,,,,,26.031784425000296,26.03182688200104,26.03183536799952,26.03185221500098,,,,,,,,,,,,,,,,,,,,,,,,,,,,,,,,,,,,,577530,001,2024-03-21_18h40.54.611,Test1,2023.2.3,None,2024-03-21 18h41.05.266844 -0300,
0,0,0,0,,,,,,,,,,,,,,,,,3,0,3,0,8,0,8,0,,,,,,,,,26.06544560200018,,,,,,,,,,,,,,,,,,,,,,,,,,,,,,,,,,,,,,26.032036800999776,26.032077813999422,26.03209041700029,26.03210734300046,,,,,,,,,,,,,,,,,,,,,,,,,,,,,,,,,,,,,577530,001,2024-03-21_18h40.54.611,Test1,2023.2.3,None,2024-03-21 18h41.05.266844 -0300,
0,0,0,0,,,,,,,,,,,,,,,,,3,0,3,0,9,0,9,0,,,,,,,,,26.06544560200018,,,,,,,,,,,,,,,,,,,,,,,,,,,,,,,,,,,,,,26.032299775000865,26.032346512000004,26.032355416000428,26.032372276000388,,,,,,,,,,,,,,,,,,,,,,,,,,,,,,,,,,,,,577530,001,2024-03-21_18h40.54.611,Test1,2023.2.3,None,2024-03-21 18h41.05.266844 -0300,
0,0,0,0,,,,,,,,,,,,,,,,,3,0,3,0,,,,,,,,,,,,,,,,,,,,,,,,,,,,,,,,,,,,,,,,,,,,,,,,,,,,,,,,,,,,,,,,,,,,,,,,,,,,,,,,,,,,,,,,,,,577530,001,2024-03-21_18h40.54.611,Test1,2023.2.3,None,2024-03-21 18h41.05.266844 -0300,
0,0,0,0,,,,,,,,,,,,,,,,,4,0,4,0,0,0,0,0,,,,,,,,,26.06544560200018,,,,,,,,,,,,,,,,,,,,,,,,,,,,,,,,,,,,,,26.033147584999824,26.03319526999985,26.03320471799998,26.03322672000104,,,,,,,,,,,,,,,,,,,,,,,,,,,,,,,,,,,,,577530,001,2024-03-21_18h40.54.611,Test1,2023.2.3,None,2024-03-21 18h41.05.266844 -0300,
0,0,0,0,,,,,,,,,,,,,,,,,4,0,4,0,1,0,1,0,,,,,,,,,26.06544560200018,,,,,,,,,,,,,,,,,,,,,,,,,,,,,,,,,,,,,,26.03343569699973,26.033477420000054,26.033485979000034,26.03350270699957,,,,,,,,,,,,,,,,,,,,,,,,,,,,,,,,,,,,,577530,001,2024-03-21_18h40.54.611,Test1,2023.2.3,None,2024-03-21 18h41.05.266844 -0300,
0,0,0,0,,,,,,,,,,,,,,,,,4,0,4,0,2,0,2,0,,,,,,,,,26.06544560200018,,,,,,,,,,,,,,,,,,,,,,,,,,,,,,,,,,,,,,26.03368174299976,26.033723476999512,26.033732027999577,26.03374796800017,,,,,,,,,,,,,,,,,,,,,,,,,,,,,,,,,,,,,577530,001,2024-03-21_18h40.54.611,Test1,2023.2.3,None,2024-03-21 18h41.05.266844 -0300,
0,0,0,0,,,,,,,,,,,,,,,,,4,0,4,0,3,0,3,0,,,,,,,,,26.06544560200018,,,,,,,,,,,,,,,,,,,,,,,,,,,,,,,,,,,,,,26.033923185001186,26.033964940999795,26.03397324999969,26.033993566999925,,,,,,,,,,,,,,,,,,,,,,,,,,,,,,,,,,,,,577530,001,2024-03-21_18h40.54.611,Test1,2023.2.3,None,2024-03-21 18h41.05.266844 -0300,
0,0,0,0,,,,,,,,,,,,,,,,,4,0,4,0,4,0,4,0,,,,,,,,,26.06544560200018,,,,,,,,,,,,,,,,,,,,,,,,,,,,,,,,,,,,,,26.03417366800022,26.034213828999782,26.03422213200065,26.034238205000293,,,,,,,,,,,,,,,,,,,,,,,,,,,,,,,,,,,,,577530,001,2024-03-21_18h40.54.611,Test1,2023.2.3,None,2024-03-21 18h41.05.266844 -0300,
0,0,0,0,,,,,,,,,,,,,,,,,4,0,4,0,5,0,5,0,,,,,,,,,26.06544560200018,,,,,,,,,,,,,,,,,,,,,,,,,,,,,,,,,,,,,,26.03442424700006,26.034463838999727,26.034471926999686,26.034487120999984,,,,,,,,,,,,,,,,,,,,,,,,,,,,,,,,,,,,,577530,001,2024-03-21_18h40.54.611,Test1,2023.2.3,None,2024-03-21 18h41.05.266844 -0300,
0,0,0,0,,,,,,,,,,,,,,,,,4,0,4,0,6,0,6,0,,,,,,,,,26.06544560200018,,,,,,,,,,,,,,,,,,,,,,,,,,,,,,,,,,,,,,26.034661360999962,26.034700566000538,26.034708552000666,26.03472813100052,,,,,,,,,,,,,,,,,,,,,,,,,,,,,,,,,,,,,577530,001,2024-03-21_18h40.54.611,Test1,2023.2.3,None,2024-03-21 18h41.05.266844 -0300,
0,0,0,0,,,,,,,,,,,,,,,,,4,0,4,0,7,0,7,0,,,,,,,,,26.06544560200018,,,,,,,,,,,,,,,,,,,,,,,,,,,,,,,,,,,,,,26.034901719000118,26.0349404410008,26.03494859700004,26.034964426000442,,,,,,,,,,,,,,,,,,,,,,,,,,,,,,,,,,,,,577530,001,2024-03-21_18h40.54.611,Test1,2023.2.3,None,2024-03-21 18h41.05.266844 -0300,
0,0,0,0,,,,,,,,,,,,,,,,,4,0,4,0,8,0,8,0,,,,,,,,,26.06544560200018,,,,,,,,,,,,,,,,,,,,,,,,,,,,,,,,,,,,,,26.035137062001013,26.035176901999876,26.035185025999454,26.035200337000788,,,,,,,,,,,,,,,,,,,,,,,,,,,,,,,,,,,,,577530,001,2024-03-21_18h40.54.611,Test1,2023.2.3,None,2024-03-21 18h41.05.266844 -0300,
0,0,0,0,,,,,,,,,,,,,,,,,4,0,4,0,9,0,9,0,,,,,,,,,26.06544560200018,,,,,,,,,,,,,,,,,,,,,,,,,,,,,,,,,,,,,,26.03538101400045,26.03541969700018,26.035427802000413,26.035443381000732,,,,,,,,,,,,,,,,,,,,,,,,,,,,,,,,,,,,,577530,001,2024-03-21_18h40.54.611,Test1,2023.2.3,None,2024-03-21 18h41.05.266844 -0300,
0,0,0,0,,,,,,,,,,,,,,,,,4,0,4,0,,,,,,,,,,,,,,,,,,,,,,,,,,,,,,,,,,,,,,,,,,,,,,,,,,,,,,,,,,,,,,,,,,,,,,,,,,,,,,,,,,,,,,,,,,,577530,001,2024-03-21_18h40.54.611,Test1,2023.2.3,None,2024-03-21 18h41.05.266844 -0300,
0,0,0,0,,,,,,,,,,,,,,,,,5,0,5,0,0,0,0,0,,,,,,,,,26.06544560200018,,,,,,,,,,,,,,,,,,,,,,,,,,,,,,,,,,,,,,26.036125378999714,26.03617149800084,26.036180257000524,26.036204203001034,,,,,,,,,,,,,,,,,,,,,,,,,,,,,,,,,,,,,577530,001,2024-03-21_18h40.54.611,Test1,2023.2.3,None,2024-03-21 18h41.05.266844 -0300,
0,0,0,0,,,,,,,,,,,,,,,,,5,0,5,0,1,0,1,0,,,,,,,,,26.06544560200018,,,,,,,,,,,,,,,,,,,,,,,,,,,,,,,,,,,,,,26.03638383699945,26.036441038000703,26.036449003000598,26.03646737100098,,,,,,,,,,,,,,,,,,,,,,,,,,,,,,,,,,,,,577530,001,2024-03-21_18h40.54.611,Test1,2023.2.3,None,2024-03-21 18h41.05.266844 -0300,
0,0,0,0,,,,,,,,,,,,,,,,,5,0,5,0,2,0,2,0,,,,,,,,,26.06544560200018,,,,,,,,,,,,,,,,,,,,,,,,,,,,,,,,,,,,,,26.03663722700003,26.036675593999462,26.03668336100054,26.036698379999507,,,,,,,,,,,,,,,,,,,,,,,,,,,,,,,,,,,,,577530,001,2024-03-21_18h40.54.611,Test1,2023.2.3,None,2024-03-21 18h41.05.266844 -0300,
0,0,0,0,,,,,,,,,,,,,,,,,5,0,5,0,3,0,3,0,,,,,,,,,26.06544560200018,,,,,,,,,,,,,,,,,,,,,,,,,,,,,,,,,,,,,,26.036862429000394,26.03689996600042,26.036907761999828,26.036922676999893,,,,,,,,,,,,,,,,,,,,,,,,,,,,,,,,,,,,,577530,001,2024-03-21_18h40.54.611,Test1,2023.2.3,None,2024-03-21 18h41.05.266844 -0300,
0,0,0,0,,,,,,,,,,,,,,,,,5,0,5,0,4,0,4,0,,,,,,,,,26.06544560200018,,,,,,,,,,,,,,,,,,,,,,,,,,,,,,,,,,,,,,26.037120475999473,26.037163516000874,26.037171465000938,26.037189377000686,,,,,,,,,,,,,,,,,,,,,,,,,,,,,,,,,,,,,577530,001,2024-03-21_18h40.54.611,Test1,2023.2.3,None,2024-03-21 18h41.05.266844 -0300,
0,0,0,0,,,,,,,,,,,,,,,,,5,0,5,0,5,0,5,0,,,,,,,,,26.06544560200018,,,,,,,,,,,,,,,,,,,,,,,,,,,,,,,,,,,,,,26.037354592001066,26.037476520999917,26.0374927619996,26.037563302001217,,,,,,,,,,,,,,,,,,,,,,,,,,,,,,,,,,,,,577530,001,2024-03-21_18h40.54.611,Test1,2023.2.3,None,2024-03-21 18h41.05.266844 -0300,
0,0,0,0,,,,,,,,,,,,,,,,,5,0,5,0,6,0,6,0,,,,,,,,,26.06544560200018,,,,,,,,,,,,,,,,,,,,,,,,,,,,,,,,,,,,,,26.037770818000354,26.037812487000338,26.03782063499966,26.037841257000764,,,,,,,,,,,,,,,,,,,,,,,,,,,,,,,,,,,,,577530,001,2024-03-21_18h40.54.611,Test1,2023.2.3,None,2024-03-21 18h41.05.266844 -0300,
0,0,0,0,,,,,,,,,,,,,,,,,5,0,5,0,7,0,7,0,,,,,,,,,26.06544560200018,,,,,,,,,,,,,,,,,,,,,,,,,,,,,,,,,,,,,,26.038015506999727,26.0380596720006,26.03806760900079,26.03808594200018,,,,,,,,,,,,,,,,,,,,,,,,,,,,,,,,,,,,,577530,001,2024-03-21_18h40.54.611,Test1,2023.2.3,None,2024-03-21 18h41.05.266844 -0300,
0,0,0,0,,,,,,,,,,,,,,,,,5,0,5,0,8,0,8,0,,,,,,,,,26.06544560200018,,,,,,,,,,,,,,,,,,,,,,,,,,,,,,,,,,,,,,26.03825357000096,26.038294383000903,26.038302076000036,26.038317013999404,,,,,,,,,,,,,,,,,,,,,,,,,,,,,,,,,,,,,577530,001,2024-03-21_18h40.54.611,Test1,2023.2.3,None,2024-03-21 18h41.05.266844 -0300,
0,0,0,0,,,,,,,,,,,,,,,,,5,0,5,0,9,0,9,0,,,,,,,,,26.06544560200018,,,,,,,,,,,,,,,,,,,,,,,,,,,,,,,,,,,,,,26.038480942001115,26.038517385000887,26.038524786999915,26.038539377001143,,,,,,,,,,,,,,,,,,,,,,,,,,,,,,,,,,,,,577530,001,2024-03-21_18h40.54.611,Test1,2023.2.3,None,2024-03-21 18h41.05.266844 -0300,
0,0,0,0,,,,,,,,,,,,,,,,,5,0,5,0,,,,,,,,,,,,,,,,,,,,,,,,,,,,,,,,,,,,,,,,,,,,,,,,,,,,,,,,,,,,,,,,,,,,,,,,,,,,,,,,,,,,,,,,,,,577530,001,2024-03-21_18h40.54.611,Test1,2023.2.3,None,2024-03-21 18h41.05.266844 -0300,
0,0,0,0,,,,,,,,,,,,,,,,,6,0,6,0,0,0,0,0,,,,,,,,,26.06544560200018,,,,,,,,,,,,,,,,,,,,,,,,,,,,,,,,,,,,,,26.039210480999827,26.039253684999494,26.039262088001124,26.039277404999666,,,,,,,,,,,,,,,,,,,,,,,,,,,,,,,,,,,,,577530,001,2024-03-21_18h40.54.611,Test1,2023.2.3,None,2024-03-21 18h41.05.266844 -0300,
0,0,0,0,,,,,,,,,,,,,,,,,6,0,6,0,1,0,1,0,,,,,,,,,26.06544560200018,,,,,,,,,,,,,,,,,,,,,,,,,,,,,,,,,,,,,,26.03946335100045,26.039500368000517,26.039507953000793,26.039522605000457,,,,,,,,,,,,,,,,,,,,,,,,,,,,,,,,,,,,,577530,001,2024-03-21_18h40.54.611,Test1,2023.2.3,None,2024-03-21 18h41.05.266844 -0300,
0,0,0,0,,,,,,,,,,,,,,,,,6,0,6,0,2,0,2,0,,,,,,,,,26.06544560200018,,,,,,,,,,,,,,,,,,,,,,,,,,,,,,,,,,,,,,26.039688676999504,26.039725283000735,26.03973287500048,26.039747487000568,,,,,,,,,,,,,,,,,,,,,,,,,,,,,,,,,,,,,577530,001,2024-03-21_18h40.54.611,Test1,2023.2.3,None,2024-03-21 18h41.05.266844 -0300,
0,0,0,0,,,,,,,,,,,,,,,,,6,0,6,0,3,0,3,0,,,,,,,,,26.06544560200018,,,,,,,,,,,,,,,,,,,,,,,,,,,,,,,,,,,,,,26.03991412799951,26.039950131000296,26.039957569000762,26.039975220999622,,,,,,,,,,,,,,,,,,,,,,,,,,,,,,,,,,,,,577530,001,2024-03-21_18h40.54.611,Test1,2023.2.3,None,2024-03-21 18h41.05.266844 -0300,
0,0,0,0,,,,,,,,,,,,,,,,,6,0,6,0,4,0,4,0,,,,,,,,,26.06544560200018,,,,,,,,,,,,,,,,,,,,,,,,,,,,,,,,,,,,,,26.04013203500108,26.040171268999984,26.040178695000577,26.04019314800098,,,,,,,,,,,,,,,,,,,,,,,,,,,,,,,,,,,,,577530,001,2024-03-21_18h40.54.611,Test1,2023.2.3,None,2024-03-21 18h41.05.266844 -0300,
0,0,0,0,,,,,,,,,,,,,,,,,6,0,6,0,5,0,5,0,,,,,,,,,26.06544560200018,,,,,,,,,,,,,,,,,,,,,,,,,,,,,,,,,,,,,,26.040349860000788,26.040385127000263,26.040406018000795,26.0404198870001,,,,,,,,,,,,,,,,,,,,,,,,,,,,,,,,,,,,,577530,001,2024-03-21_18h40.54.611,Test1,2023.2.3,None,2024-03-21 18h41.05.266844 -0300,
0,0,0,0,,,,,,,,,,,,,,,,,6,0,6,0,6,0,6,0,,,,,,,,,26.06544560200018,,,,,,,,,,,,,,,,,,,,,,,,,,,,,,,,,,,,,,26.040577978999863,26.04062019199955,26.040627468999446,26.04064142900097,,,,,,,,,,,,,,,,,,,,,,,,,,,,,,,,,,,,,577530,001,2024-03-21_18h40.54.611,Test1,2023.2.3,None,2024-03-21 18h41.05.266844 -0300,
0,0,0,0,,,,,,,,,,,,,,,,,6,0,6,0,7,0,7,0,,,,,,,,,26.06544560200018,,,,,,,,,,,,,,,,,,,,,,,,,,,,,,,,,,,,,,26.040793123000185,26.040830665000612,26.040837889000613,26.04085198699977,,,,,,,,,,,,,,,,,,,,,,,,,,,,,,,,,,,,,577530,001,2024-03-21_18h40.54.611,Test1,2023.2.3,None,2024-03-21 18h41.05.266844 -0300,
0,0,0,0,,,,,,,,,,,,,,,,,6,0,6,0,8,0,8,0,,,,,,,,,26.06544560200018,,,,,,,,,,,,,,,,,,,,,,,,,,,,,,,,,,,,,,26.041002387000844,26.04104027699941,26.041047525000977,26.04106192600011,,,,,,,,,,,,,,,,,,,,,,,,,,,,,,,,,,,,,577530,001,2024-03-21_18h40.54.611,Test1,2023.2.3,None,2024-03-21 18h41.05.266844 -0300,
0,0,0,0,,,,,,,,,,,,,,,,,6,0,6,0,9,0,9,0,,,,,,,,,26.06544560200018,,,,,,,,,,,,,,,,,,,,,,,,,,,,,,,,,,,,,,26.041227697000068,26.041261911999754,26.04126909000115,26.04128287599997,,,,,,,,,,,,,,,,,,,,,,,,,,,,,,,,,,,,,577530,001,2024-03-21_18h40.54.611,Test1,2023.2.3,None,2024-03-21 18h41.05.266844 -0300,
0,0,0,0,,,,,,,,,,,,,,,,,6,0,6,0,,,,,,,,,,,,,,,,,,,,,,,,,,,,,,,,,,,,,,,,,,,,,,,,,,,,,,,,,,,,,,,,,,,,,,,,,,,,,,,,,,,,,,,,,,,577530,001,2024-03-21_18h40.54.611,Test1,2023.2.3,None,2024-03-21 18h41.05.266844 -0300,
0,0,0,0,,,,,,,,,,,,,,,,,7,0,7,0,0,0,0,0,,,,,,,,,26.06544560200018,,,,,,,,,,,,,,,,,,,,,,,,,,,,,,,,,,,,,,26.041895156000464,26.041939651000575,26.04194779700083,26.041962813000282,,,,,,,,,,,,,,,,,,,,,,,,,,,,,,,,,,,,,577530,001,2024-03-21_18h40.54.611,Test1,2023.2.3,None,2024-03-21 18h41.05.266844 -0300,
0,0,0,0,,,,,,,,,,,,,,,,,7,0,7,0,1,0,1,0,,,,,,,,,26.06544560200018,,,,,,,,,,,,,,,,,,,,,,,,,,,,,,,,,,,,,,26.042127824001,26.04216460600037,26.04217200899984,26.0421862660005,,,,,,,,,,,,,,,,,,,,,,,,,,,,,,,,,,,,,577530,001,2024-03-21_18h40.54.611,Test1,2023.2.3,None,2024-03-21 18h41.05.266844 -0300,
0,0,0,0,,,,,,,,,,,,,,,,,7,0,7,0,2,0,2,0,,,,,,,,,26.06544560200018,,,,,,,,,,,,,,,,,,,,,,,,,,,,,,,,,,,,,,26.042340570000306,26.042389342001115,26.042396422999445,26.042410017000293,,,,,,,,,,,,,,,,,,,,,,,,,,,,,,,,,,,,,577530,001,2024-03-21_18h40.54.611,Test1,2023.2.3,None,2024-03-21 18h41.05.266844 -0300,
0,0,0,0,,,,,,,,,,,,,,,,,7,0,7,0,3,0,3,0,,,,,,,,,26.06544560200018,,,,,,,,,,,,,,,,,,,,,,,,,,,,,,,,,,,,,,26.04255829000067,26.042596252000294,26.042603396999766,26.042617172000973,,,,,,,,,,,,,,,,,,,,,,,,,,,,,,,,,,,,,577530,001,2024-03-21_18h40.54.611,Test1,2023.2.3,None,2024-03-21 18h41.05.266844 -0300,
0,0,0,0,,,,,,,,,,,,,,,,,7,0,7,0,4,0,4,0,,,,,,,,,26.06544560200018,,,,,,,,,,,,,,,,,,,,,,,,,,,,,,,,,,,,,,26.042770608000865,26.042807576000996,26.042814806000024,26.042828391000512,,,,,,,,,,,,,,,,,,,,,,,,,,,,,,,,,,,,,577530,001,2024-03-21_18h40.54.611,Test1,2023.2.3,None,2024-03-21 18h41.05.266844 -0300,
0,0,0,0,,,,,,,,,,,,,,,,,7,0,7,0,5,0,5,0,,,,,,,,,26.06544560200018,,,,,,,,,,,,,,,,,,,,,,,,,,,,,,,,,,,,,,26.0429757969996,26.043014909000703,26.043022114999985,26.04303558799984,,,,,,,,,,,,,,,,,,,,,,,,,,,,,,,,,,,,,577530,001,2024-03-21_18h40.54.611,Test1,2023.2.3,None,2024-03-21 18h41.05.266844 -0300,
0,0,0,0,,,,,,,,,,,,,,,,,7,0,7,0,6,0,6,0,,,,,,,,,26.06544560200018,,,,,,,,,,,,,,,,,,,,,,,,,,,,,,,,,,,,,,26.043186078000872,26.04322099000092,26.04322810099984,26.04324197800088,,,,,,,,,,,,,,,,,,,,,,,,,,,,,,,,,,,,,577530,001,2024-03-21_18h40.54.611,Test1,2023.2.3,None,2024-03-21 18h41.05.266844 -0300,
0,0,0,0,,,,,,,,,,,,,,,,,7,0,7,0,7,0,7,0,,,,,,,,,26.06544560200018,,,,,,,,,,,,,,,,,,,,,,,,,,,,,,,,,,,,,,26.043395013999543,26.04343220100054,26.043439324001156,26.043452887000967,,,,,,,,,,,,,,,,,,,,,,,,,,,,,,,,,,,,,577530,001,2024-03-21_18h40.54.611,Test1,2023.2.3,None,2024-03-21 18h41.05.266844 -0300,
0,0,0,0,,,,,,,,,,,,,,,,,7,0,7,0,8,0,8,0,,,,,,,,,26.06544560200018,,,,,,,,,,,,,,,,,,,,,,,,,,,,,,,,,,,,,,26.043602783000097,26.043637017000947,26.04364391800118,26.043657247000738,,,,,,,,,,,,,,,,,,,,,,,,,,,,,,,,,,,,,577530,001,2024-03-21_18h40.54.611,Test1,2023.2.3,None,2024-03-21 18h41.05.266844 -0300,
0,0,0,0,,,,,,,,,,,,,,,,,7,0,7,0,9,0,9,0,,,,,,,,,26.06544560200018,,,,,,,,,,,,,,,,,,,,,,,,,,,,,,,,,,,,,,26.04380766900067,26.043841214001077,26.04384816200036,26.043861742000445,,,,,,,,,,,,,,,,,,,,,,,,,,,,,,,,,,,,,577530,001,2024-03-21_18h40.54.611,Test1,2023.2.3,None,2024-03-21 18h41.05.266844 -0300,
0,0,0,0,,,,,,,,,,,,,,,,,7,0,7,0,,,,,,,,,,,,,,,,,,,,,,,,,,,,,,,,,,,,,,,,,,,,,,,,,,,,,,,,,,,,,,,,,,,,,,,,,,,,,,,,,,,,,,,,,,,577530,001,2024-03-21_18h40.54.611,Test1,2023.2.3,None,2024-03-21 18h41.05.266844 -0300,
0,0,0,0,,,,,,,,,,,,,,,,,8,0,8,0,0,0,0,0,,,,,,,,,26.06544560200018,,,,,,,,,,,,,,,,,,,,,,,,,,,,,,,,,,,,,,26.04447505600001,26.044516916999783,26.044524524000735,26.04453879799985,,,,,,,,,,,,,,,,,,,,,,,,,,,,,,,,,,,,,577530,001,2024-03-21_18h40.54.611,Test1,2023.2.3,None,2024-03-21 18h41.05.266844 -0300,
0,0,0,0,,,,,,,,,,,,,,,,,8,0,8,0,1,0,1,0,,,,,,,,,26.06544560200018,,,,,,,,,,,,,,,,,,,,,,,,,,,,,,,,,,,,,,26.044688947000395,26.044722937000188,26.044730007999533,26.0447435340011,,,,,,,,,,,,,,,,,,,,,,,,,,,,,,,,,,,,,577530,001,2024-03-21_18h40.54.611,Test1,2023.2.3,None,2024-03-21 18h41.05.266844 -0300,
0,0,0,0,,,,,,,,,,,,,,,,,8,0,8,0,2,0,2,0,,,,,,,,,26.06544560200018,,,,,,,,,,,,,,,,,,,,,,,,,,,,,,,,,,,,,,26.04489753800044,26.044930816000488,26.04493772100068,26.044950796000194,,,,,,,,,,,,,,,,,,,,,,,,,,,,,,,,,,,,,577530,001,2024-03-21_18h40.54.611,Test1,2023.2.3,None,2024-03-21 18h41.05.266844 -0300,
0,0,0,0,,,,,,,,,,,,,,,,,8,0,8,0,3,0,3,0,,,,,,,,,26.06544560200018,,,,,,,,,,,,,,,,,,,,,,,,,,,,,,,,,,,,,,26.04509530500036,26.045132052000554,26.04513907600085,26.045152114000302,,,,,,,,,,,,,,,,,,,,,,,,,,,,,,,,,,,,,577530,001,2024-03-21_18h40.54.611,Test1,2023.2.3,None,2024-03-21 18h41.05.266844 -0300,
0,0,0,0,,,,,,,,,,,,,,,,,8,0,8,0,4,0,4,0,,,,,,,,,26.06544560200018,,,,,,,,,,,,,,,,,,,,,,,,,,,,,,,,,,,,,,26.045327627000006,26.045360856000116,26.045380978999674,26.0453937350012,,,,,,,,,,,,,,,,,,,,,,,,,,,,,,,,,,,,,577530,001,2024-03-21_18h40.54.611,Test1,2023.2.3,None,2024-03-21 18h41.05.266844 -0300,
0,0,0,0,,,,,,,,,,,,,,,,,8,0,8,0,5,0,5,0,,,,,,,,,26.06544560200018,,,,,,,,,,,,,,,,,,,,,,,,,,,,,,,,,,,,,,26.045543452999482,26.045575887001178,26.045582374999867,26.045595425999636,,,,,,,,,,,,,,,,,,,,,,,,,,,,,,,,,,,,,577530,001,2024-03-21_18h40.54.611,Test1,2023.2.3,None,2024-03-21 18h41.05.266844 -0300,
0,0,0,0,,,,,,,,,,,,,,,,,8,0,8,0,6,0,6,0,,,,,,,,,26.06544560200018,,,,,,,,,,,,,,,,,,,,,,,,,,,,,,,,,,,,,,26.045734979999906,26.045776790000673,26.045783569999912,26.04579662800097,,,,,,,,,,,,,,,,,,,,,,,,,,,,,,,,,,,,,577530,001,2024-03-21_18h40.54.611,Test1,2023.2.3,None,2024-03-21 18h41.05.266844 -0300,
0,0,0,0,,,,,,,,,,,,,,,,,8,0,8,0,7,0,7,0,,,,,,,,,26.06544560200018,,,,,,,,,,,,,,,,,,,,,,,,,,,,,,,,,,,,,,26.045937123999465,26.04596920199947,26.045975687000464,26.04598850200091,,,,,,,,,,,,,,,,,,,,,,,,,,,,,,,,,,,,,577530,001,2024-03-21_18h40.54.611,Test1,2023.2.3,None,2024-03-21 18h41.05.266844 -0300,
0,0,0,0,,,,,,,,,,,,,,,,,8,0,8,0,8,0,8,0,,,,,,,,,26.06544560200018,,,,,,,,,,,,,,,,,,,,,,,,,,,,,,,,,,,,,,26.0461335100008,26.046165899000698,26.04617257999962,26.0461852440003,,,,,,,,,,,,,,,,,,,,,,,,,,,,,,,,,,,,,577530,001,2024-03-21_18h40.54.611,Test1,2023.2.3,None,2024-03-21 18h41.05.266844 -0300,
0,0,0,0,,,,,,,,,,,,,,,,,8,0,8,0,9,0,9,0,,,,,,,,,26.06544560200018,,,,,,,,,,,,,,,,,,,,,,,,,,,,,,,,,,,,,,26.046382386000914,26.046446456999547,26.046453155000563,26.04646599300031,,,,,,,,,,,,,,,,,,,,,,,,,,,,,,,,,,,,,577530,001,2024-03-21_18h40.54.611,Test1,2023.2.3,None,2024-03-21 18h41.05.266844 -0300,
0,0,0,0,,,,,,,,,,,,,,,,,8,0,8,0,,,,,,,,,,,,,,,,,,,,,,,,,,,,,,,,,,,,,,,,,,,,,,,,,,,,,,,,,,,,,,,,,,,,,,,,,,,,,,,,,,,,,,,,,,,577530,001,2024-03-21_18h40.54.611,Test1,2023.2.3,None,2024-03-21 18h41.05.266844 -0300,
0,0,0,0,,,,,,,,,,,,,,,,,9,0,9,0,0,0,0,0,,,,,,,,,26.06544560200018,,,,,,,,,,,,,,,,,,,,,,,,,,,,,,,,,,,,,,26.047092943999814,26.047132924000834,26.047140259001026,26.0471536820005,,,,,,,,,,,,,,,,,,,,,,,,,,,,,,,,,,,,,577530,001,2024-03-21_18h40.54.611,Test1,2023.2.3,None,2024-03-21 18h41.05.266844 -0300,
0,0,0,0,,,,,,,,,,,,,,,,,9,0,9,0,1,0,1,0,,,,,,,,,26.06544560200018,,,,,,,,,,,,,,,,,,,,,,,,,,,,,,,,,,,,,,26.047298659999797,26.047331388999737,26.04733810000107,26.04735088599955,,,,,,,,,,,,,,,,,,,,,,,,,,,,,,,,,,,,,577530,001,2024-03-21_18h40.54.611,Test1,2023.2.3,None,2024-03-21 18h41.05.266844 -0300,
0,0,0,0,,,,,,,,,,,,,,,,,9,0,9,0,2,0,2,0,,,,,,,,,26.06544560200018,,,,,,,,,,,,,,,,,,,,,,,,,,,,,,,,,,,,,,26.047495300001174,26.04753322200122,26.047539962000883,26.047552646999975,,,,,,,,,,,,,,,,,,,,,,,,,,,,,,,,,,,,,577530,001,2024-03-21_18h40.54.611,Test1,2023.2.3,None,2024-03-21 18h41.05.266844 -0300,
0,0,0,0,,,,,,,,,,,,,,,,,9,0,9,0,3,0,3,0,,,,,,,,,26.06544560200018,,,,,,,,,,,,,,,,,,,,,,,,,,,,,,,,,,,,,,26.04769692700029,26.047728217999975,26.047734648000187,26.047747122000146,,,,,,,,,,,,,,,,,,,,,,,,,,,,,,,,,,,,,577530,001,2024-03-21_18h40.54.611,Test1,2023.2.3,None,2024-03-21 18h41.05.266844 -0300,
0,0,0,0,,,,,,,,,,,,,,,,,9,0,9,0,4,0,4,0,,,,,,,,,26.06544560200018,,,,,,,,,,,,,,,,,,,,,,,,,,,,,,,,,,,,,,26.04789089699989,26.047941144001015,26.04796328500015,26.047975908000808,,,,,,,,,,,,,,,,,,,,,,,,,,,,,,,,,,,,,577530,001,2024-03-21_18h40.54.611,Test1,2023.2.3,None,2024-03-21 18h41.05.266844 -0300,
0,0,0,0,,,,,,,,,,,,,,,,,9,0,9,0,5,0,5,0,,,,,,,,,26.06544560200018,,,,,,,,,,,,,,,,,,,,,,,,,,,,,,,,,,,,,,26.04811254299966,26.048146950000955,26.048153404000914,26.04816591800045,,,,,,,,,,,,,,,,,,,,,,,,,,,,,,,,,,,,,577530,001,2024-03-21_18h40.54.611,Test1,2023.2.3,None,2024-03-21 18h41.05.266844 -0300,
0,0,0,0,,,,,,,,,,,,,,,,,9,0,9,0,6,0,6,0,,,,,,,,,26.06544560200018,,,,,,,,,,,,,,,,,,,,,,,,,,,,,,,,,,,,,,26.048385625001174,26.048416763000205,26.048423317000925,26.04843585799972,,,,,,,,,,,,,,,,,,,,,,,,,,,,,,,,,,,,,577530,001,2024-03-21_18h40.54.611,Test1,2023.2.3,None,2024-03-21 18h41.05.266844 -0300,
0,0,0,0,,,,,,,,,,,,,,,,,9,0,9,0,7,0,7,0,,,,,,,,,26.06544560200018,,,,,,,,,,,,,,,,,,,,,,,,,,,,,,,,,,,,,,26.048575662000076,26.048606956001095,26.04861336199974,26.048626011001033,,,,,,,,,,,,,,,,,,,,,,,,,,,,,,,,,,,,,577530,001,2024-03-21_18h40.54.611,Test1,2023.2.3,None,2024-03-21 18h41.05.266844 -0300,
0,0,0,0,,,,,,,,,,,,,,,,,9,0,9,0,8,0,8,0,,,,,,,,,26.06544560200018,,,,,,,,,,,,,,,,,,,,,,,,,,,,,,,,,,,,,,26.048760957000923,26.048799162999785,26.04880574500021,26.048820543999682,,,,,,,,,,,,,,,,,,,,,,,,,,,,,,,,,,,,,577530,001,2024-03-21_18h40.54.611,Test1,2023.2.3,None,2024-03-21 18h41.05.266844 -0300,
0,0,0,0,,,,,,,,,,,,,,,,,9,0,9,0,9,0,9,0,,,,,,,,,26.06544560200018,,,,,,,,,,,,,,,,,,,,,,,,,,,,,,,,,,,,,,26.048968003000482,26.048999304999597,26.04900568800076,26.04901802399945,,,,,,,,,,,,,,,,,,,,,,,,,,,,,,,,,,,,,577530,001,2024-03-21_18h40.54.611,Test1,2023.2.3,None,2024-03-21 18h41.05.266844 -0300,
0,0,0,0,,,,,,,,,,,,,,,,,9,0,9,0,,,,,,,,,,,,,,,,,,,,,,,,,,,,,,,,,,,,,,,,,,,,,,,,,,,,,,,,,,,,,,,,,,,,,,,,,,,,,,,,,,,,,,,,,,,577530,001,2024-03-21_18h40.54.611,Test1,2023.2.3,None,2024-03-21 18h41.05.266844 -0300,
0,0,0,0,,,,,,,,,,,,,,,,,,,,,,,,,0,0,0,0,0,0,0,0,26.06544560200018,,,,,,,,,,,,,,,,,,,,,,,,,,,,,,,,,,,,,,,,,,26.049645684001007,26.04972537300091,26.049732741001208,26.05162556799951,,,,,,,,,,,,,,,,,,,,,,,,,,,,,,,,,577530,001,2024-03-21_18h40.54.611,Test1,2023.2.3,None,2024-03-21 18h41.05.266844 -0300,
0,0,0,0,,,,,,,,,,,,,,,,,,,,,,,,,0,0,0,0,,,,,,,,,,,,,,,,,,,,,,,,,,,,,,,,,,,,,,,,,,,,,,,,,,,,,,,,,,,,,,,,,,,,,,,,,,,,,,,,,,,577530,001,2024-03-21_18h40.54.611,Test1,2023.2.3,None,2024-03-21 18h41.05.266844 -0300,
0,0,0,0,,,,,,,,,,,,,,,,,,,,,,,,,,,,,,,,,,,,,,,,,,,,,,,,,,,,,,,,,,,,,,,,,,,,,,,,,,,,,,,,,,,,,,,,,,,,,,,,,,,,,,,,,,,,,,,577530,001,2024-03-21_18h40.54.611,Test1,2023.2.3,None,2024-03-21 18h41.05.266844 -0300,
1,0,1,0,0,0,0,0,0,0,0,0,,,,,,,,,,,,,,,,,,,,,,,,,36.08238010000059,,,,,,26.051851657000952,26.06544560200018,26.06544560200018,26.06544560200018,26.06544560200018,26.06544560200018,36.05079853999996,0,,,0,,,0,,,1,[2.146830289999343],[2.3012005939999653],36.052432291000514,36.05246423800054,36.05247474799944,36.05248996500086,,,,,,,,,,,,,,,,,,36.08238010000059,36.08238010000059,36.08238010000059,36.08238010000059,36.08238010000059,,,,,,,,,,,,,,,,,,,,,,,,,,,,577530,001,2024-03-21_18h40.54.611,Test1,2023.2.3,None,2024-03-21 18h41.05.266844 -0300,
1,0,1,0,0,0,0,0,1,0,1,0,,,,,,,,,,,,,,,,,,,,,,,,,36.08238010000059,,,,,,,,,,,,,,,,,,,,,,,,,36.05265005000001,36.05267395299961,36.05268097800035,36.052694866999445,,,,,,,,,,,,,,,,,,,,,,,,,,,,,,,,,,,,,,,,,,,,,,,,,,577530,001,2024-03-21_18h40.54.611,Test1,2023.2.3,None,2024-03-21 18h41.05.266844 -0300,
1,0,1,0,0,0,0,0,2,0,2,0,,,,,,,,,,,,,,,,,,,,,,,,,36.08238010000059,,,,,,,,,,,,,,,,,,,,,,,,,36.05285076899963,36.0528741119997,36.05288121400008,36.0528944760008,,,,,,,,,,,,,,,,,,,,,,,,,,,,,,,,,,,,,,,,,,,,,,,,,,577530,001,2024-03-21_18h40.54.611,Test1,2023.2.3,None,2024-03-21 18h41.05.266844 -0300,
1,0,1,0,0,0,0,0,3,0,3,0,,,,,,,,,,,,,,,,,,,,,,,,,36.08238010000059,,,,,,,,,,,,,,,,,,,,,,,,,36.053046840001116,36.05306921900046,36.05307578300017,36.05308897900068,,,,,,,,,,,,,,,,,,,,,,,,,,,,,,,,,,,,,,,,,,,,,,,,,,577530,001,2024-03-21_18h40.54.611,Test1,2023.2.3,None,2024-03-21 18h41.05.266844 -0300,
1,0,1,0,0,0,0,0,4,0,4,0,,,,,,,,,,,,,,,,,,,,,,,,,36.08238010000059,,,,,,,,,,,,,,,,,,,,,,,,,36.05323899799987,36.05326225600038,36.053269189000275,36.05328248800106,,,,,,,,,,,,,,,,,,,,,,,,,,,,,,,,,,,,,,,,,,,,,,,,,,577530,001,2024-03-21_18h40.54.611,Test1,2023.2.3,None,2024-03-21 18h41.05.266844 -0300,
1,0,1,0,0,0,0,0,5,0,5,0,,,,,,,,,,,,,,,,,,,,,,,,,36.08238010000059,,,,,,,,,,,,,,,,,,,,,,,,,36.05343820000053,36.05346004999956,36.05346680200091,36.05348026200045,,,,,,,,,,,,,,,,,,,,,,,,,,,,,,,,,,,,,,,,,,,,,,,,,,577530,001,2024-03-21_18h40.54.611,Test1,2023.2.3,None,2024-03-21 18h41.05.266844 -0300,
1,0,1,0,0,0,0,0,6,0,6,0,,,,,,,,,,,,,,,,,,,,,,,,,36.08238010000059,,,,,,,,,,,,,,,,,,,,,,,,,36.053630205000445,36.05365319399971,36.05365967100079,36.05367288300113,,,,,,,,,,,,,,,,,,,,,,,,,,,,,,,,,,,,,,,,,,,,,,,,,,577530,001,2024-03-21_18h40.54.611,Test1,2023.2.3,None,2024-03-21 18h41.05.266844 -0300,
1,0,1,0,0,0,0,0,7,0,7,0,,,,,,,,,,,,,,,,,,,,,,,,,36.08238010000059,,,,,,,,,,,,,,,,,,,,,,,,,36.05382223500055,36.05384482500085,36.05385159300022,36.053865703001065,,,,,,,,,,,,,,,,,,,,,,,,,,,,,,,,,,,,,,,,,,,,,,,,,,577530,001,2024-03-21_18h40.54.611,Test1,2023.2.3,None,2024-03-21 18h41.05.266844 -0300,
1,0,1,0,0,0,0,0,8,0,8,0,,,,,,,,,,,,,,,,,,,,,,,,,36.08238010000059,,,,,,,,,,,,,,,,,,,,,,,,,36.05407500000001,36.05412763300046,36.0541386670011,36.05415771600019,,,,,,,,,,,,,,,,,,,,,,,,,,,,,,,,,,,,,,,,,,,,,,,,,,577530,001,2024-03-21_18h40.54.611,Test1,2023.2.3,None,2024-03-21 18h41.05.266844 -0300,
1,0,1,0,0,0,0,0,9,0,9,0,,,,,,,,,,,,,,,,,,,,,,,,,36.08238010000059,,,,,,,,,,,,,,,,,,,,,,,,,36.054353482000806,36.05437895100113,36.05438610999954,36.05440001900024,,,,,,,,,,,,,,,,,,,,,,,,,,,,,,,,,,,,,,,,,,,,,,,,,,577530,001,2024-03-21_18h40.54.611,Test1,2023.2.3,None,2024-03-21 18h41.05.266844 -0300,
1,0,1,0,0,0,0,0,,,,,,,,,,,,,,,,,,,,,,,,,,,,,,,,,,,,,,,,,,,,,,,,,,,,,,,,,,,,,,,,,,,,,,,,,,,,,,,,,,,,,,,,,,,,,,,,,,,,,,,,,,,577530,001,2024-03-21_18h40.54.611,Test1,2023.2.3,None,2024-03-21 18h41.05.266844 -0300,
1,0,1,0,1,0,1,0,0,0,0,0,,,,,,,,,,,,,,,,,,,,,,,,,36.08238010000059,,,,,,,,,,,,,,,,,,,,,,,,,36.05496461400071,36.0549913850009,36.054998505000185,36.055012386999806,,,,,,,,,,,,,,,,,,,,,,,,,,,,,,,,,,,,,,,,,,,,,,,,,,577530,001,2024-03-21_18h40.54.611,Test1,2023.2.3,None,2024-03-21 18h41.05.266844 -0300,
1,0,1,0,1,0,1,0,1,0,1,0,,,,,,,,,,,,,,,,,,,,,,,,,36.08238010000059,,,,,,,,,,,,,,,,,,,,,,,,,36.0551697610008,36.05519757900038,36.05520454500038,36.055217963999894,,,,,,,,,,,,,,,,,,,,,,,,,,,,,,,,,,,,,,,,,,,,,,,,,,577530,001,2024-03-21_18h40.54.611,Test1,2023.2.3,None,2024-03-21 18h41.05.266844 -0300,
1,0,1,0,1,0,1,0,2,0,2,0,,,,,,,,,,,,,,,,,,,,,,,,,36.08238010000059,,,,,,,,,,,,,,,,,,,,,,,,,36.055451825999626,36.05550206100088,36.05550852499982,36.05552076499953,,,,,,,,,,,,,,,,,,,,,,,,,,,,,,,,,,,,,,,,,,,,,,,,,,577530,001,2024-03-21_18h40.54.611,Test1,2023.2.3,None,2024-03-21 18h41.05.266844 -0300,
1,0,1,0,1,0,1,0,3,0,3,0,,,,,,,,,,,,,,,,,,,,,,,,,36.08238010000059,,,,,,,,,,,,,,,,,,,,,,,,,36.05577154099956,36.055810134999774,36.055816345000494,36.0558283219998,,,,,,,,,,,,,,,,,,,,,,,,,,,,,,,,,,,,,,,,,,,,,,,,,,577530,001,2024-03-21_18h40.54.611,Test1,2023.2.3,None,2024-03-21 18h41.05.266844 -0300,
1,0,1,0,1,0,1,0,4,0,4,0,,,,,,,,,,,,,,,,,,,,,,,,,36.08238010000059,,,,,,,,,,,,,,,,,,,,,,,,,36.05598321300022,36.056003380999755,36.05600930100081,36.05602112700035,,,,,,,,,,,,,,,,,,,,,,,,,,,,,,,,,,,,,,,,,,,,,,,,,,577530,001,2024-03-21_18h40.54.611,Test1,2023.2.3,None,2024-03-21 18h41.05.266844 -0300,
1,0,1,0,1,0,1,0,5,0,5,0,,,,,,,,,,,,,,,,,,,,,,,,,36.08238010000059,,,,,,,,,,,,,,,,,,,,,,,,,36.056156192000344,36.056175981000706,36.05618187300024,36.05619362499965,,,,,,,,,,,,,,,,,,,,,,,,,,,,,,,,,,,,,,,,,,,,,,,,,,577530,001,2024-03-21_18h40.54.611,Test1,2023.2.3,None,2024-03-21 18h41.05.266844 -0300,
1,0,1,0,1,0,1,0,6,0,6,0,,,,,,,,,,,,,,,,,,,,,,,,,36.08238010000059,,,,,,,,,,,,,,,,,,,,,,,,,36.0563275759996,36.056347510000705,36.05637469599969,36.05640799200046,,,,,,,,,,,,,,,,,,,,,,,,,,,,,,,,,,,,,,,,,,,,,,,,,,577530,001,2024-03-21_18h40.54.611,Test1,2023.2.3,None,2024-03-21 18h41.05.266844 -0300,
1,0,1,0,1,0,1,0,7,0,7,0,,,,,,,,,,,,,,,,,,,,,,,,,36.08238010000059,,,,,,,,,,,,,,,,,,,,,,,,,36.05666563500017,36.05668551400049,36.0566915950003,36.05670291500064,,,,,,,,,,,,,,,,,,,,,,,,,,,,,,,,,,,,,,,,,,,,,,,,,,577530,001,2024-03-21_18h40.54.611,Test1,2023.2.3,None,2024-03-21 18h41.05.266844 -0300,
1,0,1,0,1,0,1,0,8,0,8,0,,,,,,,,,,,,,,,,,,,,,,,,,36.08238010000059,,,,,,,,,,,,,,,,,,,,,,,,,36.056836128000214,36.056856528000935,36.056862479999836,36.05687455900079,,,,,,,,,,,,,,,,,,,,,,,,,,,,,,,,,,,,,,,,,,,,,,,,,,577530,001,2024-03-21_18h40.54.611,Test1,2023.2.3,None,2024-03-21 18h41.05.266844 -0300,
1,0,1,0,1,0,1,0,9,0,9,0,,,,,,,,,,,,,,,,,,,,,,,,,36.08238010000059,,,,,,,,,,,,,,,,,,,,,,,,,36.05707741799961,36.05709725499946,36.05710318000092,36.05711454000084,,,,,,,,,,,,,,,,,,,,,,,,,,,,,,,,,,,,,,,,,,,,,,,,,,577530,001,2024-03-21_18h40.54.611,Test1,2023.2.3,None,2024-03-21 18h41.05.266844 -0300,
1,0,1,0,1,0,1,0,,,,,,,,,,,,,,,,,,,,,,,,,,,,,,,,,,,,,,,,,,,,,,,,,,,,,,,,,,,,,,,,,,,,,,,,,,,,,,,,,,,,,,,,,,,,,,,,,,,,,,,,,,,577530,001,2024-03-21_18h40.54.611,Test1,2023.2.3,None,2024-03-21 18h41.05.266844 -0300,
1,0,1,0,2,0,2,0,0,0,0,0,,,,,,,,,,,,,,,,,,,,,,,,,36.08238010000059,,,,,,,,,,,,,,,,,,,,,,,,,36.05764507099957,36.0576705429994,36.05767743100114,36.05769002800116,,,,,,,,,,,,,,,,,,,,,,,,,,,,,,,,,,,,,,,,,,,,,,,,,,577530,001,2024-03-21_18h40.54.611,Test1,2023.2.3,None,2024-03-21 18h41.05.266844 -0300,
1,0,1,0,2,0,2,0,1,0,1,0,,,,,,,,,,,,,,,,,,,,,,,,,36.08238010000059,,,,,,,,,,,,,,,,,,,,,,,,,36.05783835500006,36.057858780999595,36.057865009001034,36.05787661700015,,,,,,,,,,,,,,,,,,,,,,,,,,,,,,,,,,,,,,,,,,,,,,,,,,577530,001,2024-03-21_18h40.54.611,Test1,2023.2.3,None,2024-03-21 18h41.05.266844 -0300,
1,0,1,0,2,0,2,0,2,0,2,0,,,,,,,,,,,,,,,,,,,,,,,,,36.08238010000059,,,,,,,,,,,,,,,,,,,,,,,,,36.058011795999846,36.058031669999764,36.05803761700008,36.058049152999956,,,,,,,,,,,,,,,,,,,,,,,,,,,,,,,,,,,,,,,,,,,,,,,,,,577530,001,2024-03-21_18h40.54.611,Test1,2023.2.3,None,2024-03-21 18h41.05.266844 -0300,
1,0,1,0,2,0,2,0,3,0,3,0,,,,,,,,,,,,,,,,,,,,,,,,,36.08238010000059,,,,,,,,,,,,,,,,,,,,,,,,,36.058189261000734,36.058210265000525,36.05821617800029,36.05822769199949,,,,,,,,,,,,,,,,,,,,,,,,,,,,,,,,,,,,,,,,,,,,,,,,,,577530,001,2024-03-21_18h40.54.611,Test1,2023.2.3,None,2024-03-21 18h41.05.266844 -0300,
1,0,1,0,2,0,2,0,4,0,4,0,,,,,,,,,,,,,,,,,,,,,,,,,36.08238010000059,,,,,,,,,,,,,,,,,,,,,,,,,36.0583611130005,36.05838110900004,36.058387420000145,36.05839895600002,,,,,,,,,,,,,,,,,,,,,,,,,,,,,,,,,,,,,,,,,,,,,,,,,,577530,001,2024-03-21_18h40.54.611,Test1,2023.2.3,None,2024-03-21 18h41.05.266844 -0300,
1,0,1,0,2,0,2,0,5,0,5,0,,,,,,,,,,,,,,,,,,,,,,,,,36.08238010000059,,,,,,,,,,,,,,,,,,,,,,,,,36.058537511000395,36.058557330999975,36.058563309999954,36.05857494600059,,,,,,,,,,,,,,,,,,,,,,,,,,,,,,,,,,,,,,,,,,,,,,,,,,577530,001,2024-03-21_18h40.54.611,Test1,2023.2.3,None,2024-03-21 18h41.05.266844 -0300,
1,0,1,0,2,0,2,0,6,0,6,0,,,,,,,,,,,,,,,,,,,,,,,,,36.08238010000059,,,,,,,,,,,,,,,,,,,,,,,,,36.05871254200065,36.05873273799989,36.05875747800019,36.058787961001144,,,,,,,,,,,,,,,,,,,,,,,,,,,,,,,,,,,,,,,,,,,,,,,,,,577530,001,2024-03-21_18h40.54.611,Test1,2023.2.3,None,2024-03-21 18h41.05.266844 -0300,
1,0,1,0,2,0,2,0,7,0,7,0,,,,,,,,,,,,,,,,,,,,,,,,,36.08238010000059,,,,,,,,,,,,,,,,,,,,,,,,,36.05896254700019,36.058982996999475,36.05898931900083,36.05901737500062,,,,,,,,,,,,,,,,,,,,,,,,,,,,,,,,,,,,,,,,,,,,,,,,,,577530,001,2024-03-21_18h40.54.611,Test1,2023.2.3,None,2024-03-21 18h41.05.266844 -0300,
1,0,1,0,2,0,2,0,8,0,8,0,,,,,,,,,,,,,,,,,,,,,,,,,36.08238010000059,,,,,,,,,,,,,,,,,,,,,,,,,36.05926423500023,36.05929844499951,36.059308777001206,36.05933118900066,,,,,,,,,,,,,,,,,,,,,,,,,,,,,,,,,,,,,,,,,,,,,,,,,,577530,001,2024-03-21_18h40.54.611,Test1,2023.2.3,None,2024-03-21 18h41.05.266844 -0300,
1,0,1,0,2,0,2,0,9,0,9,0,,,,,,,,,,,,,,,,,,,,,,,,,36.08238010000059,,,,,,,,,,,,,,,,,,,,,,,,,36.05949224200049,36.05951768600062,36.059524428999794,36.059536787999605,,,,,,,,,,,,,,,,,,,,,,,,,,,,,,,,,,,,,,,,,,,,,,,,,,577530,001,2024-03-21_18h40.54.611,Test1,2023.2.3,None,2024-03-21 18h41.05.266844 -0300,
1,0,1,0,2,0,2,0,,,,,,,,,,,,,,,,,,,,,,,,,,,,,,,,,,,,,,,,,,,,,,,,,,,,,,,,,,,,,,,,,,,,,,,,,,,,,,,,,,,,,,,,,,,,,,,,,,,,,,,,,,,577530,001,2024-03-21_18h40.54.611,Test1,2023.2.3,None,2024-03-21 18h41.05.266844 -0300,
1,0,1,0,3,0,3,0,0,0,0,0,,,,,,,,,,,,,,,,,,,,,,,,,36.08238010000059,,,,,,,,,,,,,,,,,,,,,,,,,36.060201719999895,36.06022752900026,36.06023402200117,36.0602466700002,,,,,,,,,,,,,,,,,,,,,,,,,,,,,,,,,,,,,,,,,,,,,,,,,,577530,001,2024-03-21_18h40.54.611,Test1,2023.2.3,None,2024-03-21 18h41.05.266844 -0300,
1,0,1,0,3,0,3,0,1,0,1,0,,,,,,,,,,,,,,,,,,,,,,,,,36.08238010000059,,,,,,,,,,,,,,,,,,,,,,,,,36.06050913800027,36.060531555000125,36.06053792300008,36.06055000299966,,,,,,,,,,,,,,,,,,,,,,,,,,,,,,,,,,,,,,,,,,,,,,,,,,577530,001,2024-03-21_18h40.54.611,Test1,2023.2.3,None,2024-03-21 18h41.05.266844 -0300,
1,0,1,0,3,0,3,0,2,0,2,0,,,,,,,,,,,,,,,,,,,,,,,,,36.08238010000059,,,,,,,,,,,,,,,,,,,,,,,,,36.06068779400084,36.06070809599987,36.06071409600008,36.06072602099994,,,,,,,,,,,,,,,,,,,,,,,,,,,,,,,,,,,,,,,,,,,,,,,,,,577530,001,2024-03-21_18h40.54.611,Test1,2023.2.3,None,2024-03-21 18h41.05.266844 -0300,
1,0,1,0,3,0,3,0,3,0,3,0,,,,,,,,,,,,,,,,,,,,,,,,,36.08238010000059,,,,,,,,,,,,,,,,,,,,,,,,,36.06087039200065,36.060891256000104,36.06089741300093,36.06090879600015,,,,,,,,,,,,,,,,,,,,,,,,,,,,,,,,,,,,,,,,,,,,,,,,,,577530,001,2024-03-21_18h40.54.611,Test1,2023.2.3,None,2024-03-21 18h41.05.266844 -0300,
1,0,1,0,3,0,3,0,4,0,4,0,,,,,,,,,,,,,,,,,,,,,,,,,36.08238010000059,,,,,,,,,,,,,,,,,,,,,,,,,36.061047600000165,36.06106841300061,36.06107449999945,36.06108745200072,,,,,,,,,,,,,,,,,,,,,,,,,,,,,,,,,,,,,,,,,,,,,,,,,,577530,001,2024-03-21_18h40.54.611,Test1,2023.2.3,None,2024-03-21 18h41.05.266844 -0300,
1,0,1,0,3,0,3,0,5,0,5,0,,,,,,,,,,,,,,,,,,,,,,,,,36.08238010000059,,,,,,,,,,,,,,,,,,,,,,,,,36.06122491499991,36.061244305999935,36.061250355000084,36.0612617959996,,,,,,,,,,,,,,,,,,,,,,,,,,,,,,,,,,,,,,,,,,,,,,,,,,577530,001,2024-03-21_18h40.54.611,Test1,2023.2.3,None,2024-03-21 18h41.05.266844 -0300,
1,0,1,0,3,0,3,0,6,0,6,0,,,,,,,,,,,,,,,,,,,,,,,,,36.08238010000059,,,,,,,,,,,,,,,,,,,,,,,,,36.06139986600101,36.06141959100023,36.06142570600059,36.06143707599949,,,,,,,,,,,,,,,,,,,,,,,,,,,,,,,,,,,,,,,,,,,,,,,,,,577530,001,2024-03-21_18h40.54.611,Test1,2023.2.3,None,2024-03-21 18h41.05.266844 -0300,
1,0,1,0,3,0,3,0,7,0,7,0,,,,,,,,,,,,,,,,,,,,,,,,,36.08238010000059,,,,,,,,,,,,,,,,,,,,,,,,,36.06157522400099,36.061594516000696,36.06160086000091,36.06161238000095,,,,,,,,,,,,,,,,,,,,,,,,,,,,,,,,,,,,,,,,,,,,,,,,,,577530,001,2024-03-21_18h40.54.611,Test1,2023.2.3,None,2024-03-21 18h41.05.266844 -0300,
1,0,1,0,3,0,3,0,8,0,8,0,,,,,,,,,,,,,,,,,,,,,,,,,36.08238010000059,,,,,,,,,,,,,,,,,,,,,,,,,36.0617445200005,36.06176503300048,36.061770903999786,36.06178257800093,,,,,,,,,,,,,,,,,,,,,,,,,,,,,,,,,,,,,,,,,,,,,,,,,,577530,001,2024-03-21_18h40.54.611,Test1,2023.2.3,None,2024-03-21 18h41.05.266844 -0300,
1,0,1,0,3,0,3,0,9,0,9,0,,,,,,,,,,,,,,,,,,,,,,,,,36.08238010000059,,,,,,,,,,,,,,,,,,,,,,,,,36.06194891800078,36.06196864999947,36.06197469000108,36.061986000000616,,,,,,,,,,,,,,,,,,,,,,,,,,,,,,,,,,,,,,,,,,,,,,,,,,577530,001,2024-03-21_18h40.54.611,Test1,2023.2.3,None,2024-03-21 18h41.05.266844 -0300,
1,0,1,0,3,0,3,0,,,,,,,,,,,,,,,,,,,,,,,,,,,,,,,,,,,,,,,,,,,,,,,,,,,,,,,,,,,,,,,,,,,,,,,,,,,,,,,,,,,,,,,,,,,,,,,,,,,,,,,,,,,577530,001,2024-03-21_18h40.54.611,Test1,2023.2.3,None,2024-03-21 18h41.05.266844 -0300,
1,0,1,0,4,0,4,0,0,0,0,0,,,,,,,,,,,,,,,,,,,,,,,,,36.08238010000059,,,,,,,,,,,,,,,,,,,,,,,,,36.06249301900061,36.06251718400017,36.06252408799992,36.06253666700104,,,,,,,,,,,,,,,,,,,,,,,,,,,,,,,,,,,,,,,,,,,,,,,,,,577530,001,2024-03-21_18h40.54.611,Test1,2023.2.3,None,2024-03-21 18h41.05.266844 -0300,
1,0,1,0,4,0,4,0,1,0,1,0,,,,,,,,,,,,,,,,,,,,,,,,,36.08238010000059,,,,,,,,,,,,,,,,,,,,,,,,,36.06267588499941,36.062698099000045,36.06270423699971,36.062716517999434,,,,,,,,,,,,,,,,,,,,,,,,,,,,,,,,,,,,,,,,,,,,,,,,,,577530,001,2024-03-21_18h40.54.611,Test1,2023.2.3,None,2024-03-21 18h41.05.266844 -0300,
1,0,1,0,4,0,4,0,2,0,2,0,,,,,,,,,,,,,,,,,,,,,,,,,36.08238010000059,,,,,,,,,,,,,,,,,,,,,,,,,36.062852777000444,36.062873169999875,36.06287915400026,36.06289051800013,,,,,,,,,,,,,,,,,,,,,,,,,,,,,,,,,,,,,,,,,,,,,,,,,,577530,001,2024-03-21_18h40.54.611,Test1,2023.2.3,None,2024-03-21 18h41.05.266844 -0300,
1,0,1,0,4,0,4,0,3,0,3,0,,,,,,,,,,,,,,,,,,,,,,,,,36.08238010000059,,,,,,,,,,,,,,,,,,,,,,,,,36.063035384000614,36.06305563400019,36.06306159000087,36.063073031000386,,,,,,,,,,,,,,,,,,,,,,,,,,,,,,,,,,,,,,,,,,,,,,,,,,577530,001,2024-03-21_18h40.54.611,Test1,2023.2.3,None,2024-03-21 18h41.05.266844 -0300,
1,0,1,0,4,0,4,0,4,0,4,0,,,,,,,,,,,,,,,,,,,,,,,,,36.08238010000059,,,,,,,,,,,,,,,,,,,,,,,,,36.06320644200059,36.0632264449996,36.06323244499981,36.063243869999496,,,,,,,,,,,,,,,,,,,,,,,,,,,,,,,,,,,,,,,,,,,,,,,,,,577530,001,2024-03-21_18h40.54.611,Test1,2023.2.3,None,2024-03-21 18h41.05.266844 -0300,
1,0,1,0,4,0,4,0,5,0,5,0,,,,,,,,,,,,,,,,,,,,,,,,,36.08238010000059,,,,,,,,,,,,,,,,,,,,,,,,,36.06337669599998,36.06339687199943,36.06340269300017,36.063413989000765,,,,,,,,,,,,,,,,,,,,,,,,,,,,,,,,,,,,,,,,,,,,,,,,,,577530,001,2024-03-21_18h40.54.611,Test1,2023.2.3,None,2024-03-21 18h41.05.266844 -0300,
1,0,1,0,4,0,4,0,6,0,6,0,,,,,,,,,,,,,,,,,,,,,,,,,36.08238010000059,,,,,,,,,,,,,,,,,,,,,,,,,36.06355559900112,36.06357883400051,36.063585222000256,36.063597325000956,,,,,,,,,,,,,,,,,,,,,,,,,,,,,,,,,,,,,,,,,,,,,,,,,,577530,001,2024-03-21_18h40.54.611,Test1,2023.2.3,None,2024-03-21 18h41.05.266844 -0300,
1,0,1,0,4,0,4,0,7,0,7,0,,,,,,,,,,,,,,,,,,,,,,,,,36.08238010000059,,,,,,,,,,,,,,,,,,,,,,,,,36.06374190899987,36.06376188200011,36.06376781600011,36.063779502001125,,,,,,,,,,,,,,,,,,,,,,,,,,,,,,,,,,,,,,,,,,,,,,,,,,577530,001,2024-03-21_18h40.54.611,Test1,2023.2.3,None,2024-03-21 18h41.05.266844 -0300,
1,0,1,0,4,0,4,0,8,0,8,0,,,,,,,,,,,,,,,,,,,,,,,,,36.08238010000059,,,,,,,,,,,,,,,,,,,,,,,,,36.06392786499964,36.063948647999496,36.06395472400072,36.06396724300066,,,,,,,,,,,,,,,,,,,,,,,,,,,,,,,,,,,,,,,,,,,,,,,,,,577530,001,2024-03-21_18h40.54.611,Test1,2023.2.3,None,2024-03-21 18h41.05.266844 -0300,
1,0,1,0,4,0,4,0,9,0,9,0,,,,,,,,,,,,,,,,,,,,,,,,,36.08238010000059,,,,,,,,,,,,,,,,,,,,,,,,,36.06410547000087,36.06412540600104,36.06413152599998,36.064143145000344,,,,,,,,,,,,,,,,,,,,,,,,,,,,,,,,,,,,,,,,,,,,,,,,,,577530,001,2024-03-21_18h40.54.611,Test1,2023.2.3,None,2024-03-21 18h41.05.266844 -0300,
1,0,1,0,4,0,4,0,,,,,,,,,,,,,,,,,,,,,,,,,,,,,,,,,,,,,,,,,,,,,,,,,,,,,,,,,,,,,,,,,,,,,,,,,,,,,,,,,,,,,,,,,,,,,,,,,,,,,,,,,,,577530,001,2024-03-21_18h40.54.611,Test1,2023.2.3,None,2024-03-21 18h41.05.266844 -0300,
1,0,1,0,5,0,5,0,0,0,0,0,,,,,,,,,,,,,,,,,,,,,,,,,36.08238010000059,,,,,,,,,,,,,,,,,,,,,,,,,36.06467043300108,36.06469414499952,36.06470064399946,36.064713140000094,,,,,,,,,,,,,,,,,,,,,,,,,,,,,,,,,,,,,,,,,,,,,,,,,,577530,001,2024-03-21_18h40.54.611,Test1,2023.2.3,None,2024-03-21 18h41.05.266844 -0300,
1,0,1,0,5,0,5,0,1,0,1,0,,,,,,,,,,,,,,,,,,,,,,,,,36.08238010000059,,,,,,,,,,,,,,,,,,,,,,,,,36.06485954100026,36.06488120500035,36.064887481999904,36.064899660001174,,,,,,,,,,,,,,,,,,,,,,,,,,,,,,,,,,,,,,,,,,,,,,,,,,577530,001,2024-03-21_18h40.54.611,Test1,2023.2.3,None,2024-03-21 18h41.05.266844 -0300,
1,0,1,0,5,0,5,0,2,0,2,0,,,,,,,,,,,,,,,,,,,,,,,,,36.08238010000059,,,,,,,,,,,,,,,,,,,,,,,,,36.06505011099944,36.06507194400001,36.06507801999942,36.0650897430005,,,,,,,,,,,,,,,,,,,,,,,,,,,,,,,,,,,,,,,,,,,,,,,,,,577530,001,2024-03-21_18h40.54.611,Test1,2023.2.3,None,2024-03-21 18h41.05.266844 -0300,
1,0,1,0,5,0,5,0,3,0,3,0,,,,,,,,,,,,,,,,,,,,,,,,,36.08238010000059,,,,,,,,,,,,,,,,,,,,,,,,,36.065231118000156,36.06525114800024,36.06525724200037,36.06526909100103,,,,,,,,,,,,,,,,,,,,,,,,,,,,,,,,,,,,,,,,,,,,,,,,,,577530,001,2024-03-21_18h40.54.611,Test1,2023.2.3,None,2024-03-21 18h41.05.266844 -0300,
1,0,1,0,5,0,5,0,4,0,4,0,,,,,,,,,,,,,,,,,,,,,,,,,36.08238010000059,,,,,,,,,,,,,,,,,,,,,,,,,36.065404721999585,36.06542506200094,36.06543095199959,36.06544278399997,,,,,,,,,,,,,,,,,,,,,,,,,,,,,,,,,,,,,,,,,,,,,,,,,,577530,001,2024-03-21_18h40.54.611,Test1,2023.2.3,None,2024-03-21 18h41.05.266844 -0300,
1,0,1,0,5,0,5,0,5,0,5,0,,,,,,,,,,,,,,,,,,,,,,,,,36.08238010000059,,,,,,,,,,,,,,,,,,,,,,,,,36.06558674400003,36.065606645001026,36.065612685000815,36.06562469600067,,,,,,,,,,,,,,,,,,,,,,,,,,,,,,,,,,,,,,,,,,,,,,,,,,577530,001,2024-03-21_18h40.54.611,Test1,2023.2.3,None,2024-03-21 18h41.05.266844 -0300,
1,0,1,0,5,0,5,0,6,0,6,0,,,,,,,,,,,,,,,,,,,,,,,,,36.08238010000059,,,,,,,,,,,,,,,,,,,,,,,,,36.06576403100007,36.06578470400018,36.065790741000455,36.06580279300033,,,,,,,,,,,,,,,,,,,,,,,,,,,,,,,,,,,,,,,,,,,,,,,,,,577530,001,2024-03-21_18h40.54.611,Test1,2023.2.3,None,2024-03-21 18h41.05.266844 -0300,
1,0,1,0,5,0,5,0,7,0,7,0,,,,,,,,,,,,,,,,,,,,,,,,,36.08238010000059,,,,,,,,,,,,,,,,,,,,,,,,,36.06593762400007,36.0659589980005,36.065965109999524,36.06597995000084,,,,,,,,,,,,,,,,,,,,,,,,,,,,,,,,,,,,,,,,,,,,,,,,,,577530,001,2024-03-21_18h40.54.611,Test1,2023.2.3,None,2024-03-21 18h41.05.266844 -0300,
1,0,1,0,5,0,5,0,8,0,8,0,,,,,,,,,,,,,,,,,,,,,,,,,36.08238010000059,,,,,,,,,,,,,,,,,,,,,,,,,36.06611882099969,36.066140455001005,36.066146475001005,36.06615921199955,,,,,,,,,,,,,,,,,,,,,,,,,,,,,,,,,,,,,,,,,,,,,,,,,,577530,001,2024-03-21_18h40.54.611,Test1,2023.2.3,None,2024-03-21 18h41.05.266844 -0300,
1,0,1,0,5,0,5,0,9,0,9,0,,,,,,,,,,,,,,,,,,,,,,,,,36.08238010000059,,,,,,,,,,,,,,,,,,,,,,,,,36.06630179400054,36.066322951000984,36.066328885000985,36.06634127500001,,,,,,,,,,,,,,,,,,,,,,,,,,,,,,,,,,,,,,,,,,,,,,,,,,577530,001,2024-03-21_18h40.54.611,Test1,2023.2.3,None,2024-03-21 18h41.05.266844 -0300,
1,0,1,0,5,0,5,0,,,,,,,,,,,,,,,,,,,,,,,,,,,,,,,,,,,,,,,,,,,,,,,,,,,,,,,,,,,,,,,,,,,,,,,,,,,,,,,,,,,,,,,,,,,,,,,,,,,,,,,,,,,577530,001,2024-03-21_18h40.54.611,Test1,2023.2.3,None,2024-03-21 18h41.05.266844 -0300,
1,0,1,0,6,0,6,0,0,0,0,0,,,,,,,,,,,,,,,,,,,,,,,,,36.08238010000059,,,,,,,,,,,,,,,,,,,,,,,,,36.066824965000706,36.06685028799984,36.066856895000456,36.06687036800031,,,,,,,,,,,,,,,,,,,,,,,,,,,,,,,,,,,,,,,,,,,,,,,,,,577530,001,2024-03-21_18h40.54.611,Test1,2023.2.3,None,2024-03-21 18h41.05.266844 -0300,
1,0,1,0,6,0,6,0,1,0,1,0,,,,,,,,,,,,,,,,,,,,,,,,,36.08238010000059,,,,,,,,,,,,,,,,,,,,,,,,,36.06701968699963,36.0670426910001,36.06704901500052,36.06706195300103,,,,,,,,,,,,,,,,,,,,,,,,,,,,,,,,,,,,,,,,,,,,,,,,,,577530,001,2024-03-21_18h40.54.611,Test1,2023.2.3,None,2024-03-21 18h41.05.266844 -0300,
1,0,1,0,6,0,6,0,2,0,2,0,,,,,,,,,,,,,,,,,,,,,,,,,36.08238010000059,,,,,,,,,,,,,,,,,,,,,,,,,36.06721121299961,36.06723292700008,36.06723927500025,36.06725196099978,,,,,,,,,,,,,,,,,,,,,,,,,,,,,,,,,,,,,,,,,,,,,,,,,,577530,001,2024-03-21_18h40.54.611,Test1,2023.2.3,None,2024-03-21 18h41.05.266844 -0300,
1,0,1,0,6,0,6,0,3,0,3,0,,,,,,,,,,,,,,,,,,,,,,,,,36.08238010000059,,,,,,,,,,,,,,,,,,,,,,,,,36.0673963370009,36.06741744899955,36.067423641999994,36.067436704999636,,,,,,,,,,,,,,,,,,,,,,,,,,,,,,,,,,,,,,,,,,,,,,,,,,577530,001,2024-03-21_18h40.54.611,Test1,2023.2.3,None,2024-03-21 18h41.05.266844 -0300,
1,0,1,0,6,0,6,0,4,0,4,0,,,,,,,,,,,,,,,,,,,,,,,,,36.08238010000059,,,,,,,,,,,,,,,,,,,,,,,,,36.067573708000054,36.06759440099995,36.067600528000185,36.06761300300059,,,,,,,,,,,,,,,,,,,,,,,,,,,,,,,,,,,,,,,,,,,,,,,,,,577530,001,2024-03-21_18h40.54.611,Test1,2023.2.3,None,2024-03-21 18h41.05.266844 -0300,
1,0,1,0,6,0,6,0,5,0,5,0,,,,,,,,,,,,,,,,,,,,,,,,,36.08238010000059,,,,,,,,,,,,,,,,,,,,,,,,,36.0677571690012,36.06777821600008,36.0677843680005,36.06779652899968,,,,,,,,,,,,,,,,,,,,,,,,,,,,,,,,,,,,,,,,,,,,,,,,,,577530,001,2024-03-21_18h40.54.611,Test1,2023.2.3,None,2024-03-21 18h41.05.266844 -0300,
1,0,1,0,6,0,6,0,6,0,6,0,,,,,,,,,,,,,,,,,,,,,,,,,36.08238010000059,,,,,,,,,,,,,,,,,,,,,,,,,36.06793619600103,36.06795812500059,36.06796440200014,36.06797717900008,,,,,,,,,,,,,,,,,,,,,,,,,,,,,,,,,,,,,,,,,,,,,,,,,,577530,001,2024-03-21_18h40.54.611,Test1,2023.2.3,None,2024-03-21 18h41.05.266844 -0300,
1,0,1,0,6,0,6,0,7,0,7,0,,,,,,,,,,,,,,,,,,,,,,,,,36.08238010000059,,,,,,,,,,,,,,,,,,,,,,,,,36.06811267000012,36.068134379000185,36.06814057799966,36.06815297799949,,,,,,,,,,,,,,,,,,,,,,,,,,,,,,,,,,,,,,,,,,,,,,,,,,577530,001,2024-03-21_18h40.54.611,Test1,2023.2.3,None,2024-03-21 18h41.05.266844 -0300,
1,0,1,0,6,0,6,0,8,0,8,0,,,,,,,,,,,,,,,,,,,,,,,,,36.08238010000059,,,,,,,,,,,,,,,,,,,,,,,,,36.06833243300025,36.068354230001205,36.0683604879996,36.06837295200057,,,,,,,,,,,,,,,,,,,,,,,,,,,,,,,,,,,,,,,,,,,,,,,,,,577530,001,2024-03-21_18h40.54.611,Test1,2023.2.3,None,2024-03-21 18h41.05.266844 -0300,
1,0,1,0,6,0,6,0,9,0,9,0,,,,,,,,,,,,,,,,,,,,,,,,,36.08238010000059,,,,,,,,,,,,,,,,,,,,,,,,,36.068511232000674,36.068533224999555,36.06853932000013,36.06855206,,,,,,,,,,,,,,,,,,,,,,,,,,,,,,,,,,,,,,,,,,,,,,,,,,577530,001,2024-03-21_18h40.54.611,Test1,2023.2.3,None,2024-03-21 18h41.05.266844 -0300,
1,0,1,0,6,0,6,0,,,,,,,,,,,,,,,,,,,,,,,,,,,,,,,,,,,,,,,,,,,,,,,,,,,,,,,,,,,,,,,,,,,,,,,,,,,,,,,,,,,,,,,,,,,,,,,,,,,,,,,,,,,577530,001,2024-03-21_18h40.54.611,Test1,2023.2.3,None,2024-03-21 18h41.05.266844 -0300,
1,0,1,0,7,0,7,0,0,0,0,0,,,,,,,,,,,,,,,,,,,,,,,,,36.08238010000059,,,,,,,,,,,,,,,,,,,,,,,,,36.069035656999404,36.06906031000108,36.069066998999915,36.06908473899966,,,,,,,,,,,,,,,,,,,,,,,,,,,,,,,,,,,,,,,,,,,,,,,,,,577530,001,2024-03-21_18h40.54.611,Test1,2023.2.3,None,2024-03-21 18h41.05.266844 -0300,
1,0,1,0,7,0,7,0,1,0,1,0,,,,,,,,,,,,,,,,,,,,,,,,,36.08238010000059,,,,,,,,,,,,,,,,,,,,,,,,,36.06923164200089,36.06925428300019,36.06926055800068,36.069273602000976,,,,,,,,,,,,,,,,,,,,,,,,,,,,,,,,,,,,,,,,,,,,,,,,,,577530,001,2024-03-21_18h40.54.611,Test1,2023.2.3,None,2024-03-21 18h41.05.266844 -0300,
1,0,1,0,7,0,7,0,2,0,2,0,,,,,,,,,,,,,,,,,,,,,,,,,36.08238010000059,,,,,,,,,,,,,,,,,,,,,,,,,36.0694122799996,36.06943392299945,36.069440082001165,36.06945286500013,,,,,,,,,,,,,,,,,,,,,,,,,,,,,,,,,,,,,,,,,,,,,,,,,,577530,001,2024-03-21_18h40.54.611,Test1,2023.2.3,None,2024-03-21 18h41.05.266844 -0300,
1,0,1,0,7,0,7,0,3,0,3,0,,,,,,,,,,,,,,,,,,,,,,,,,36.08238010000059,,,,,,,,,,,,,,,,,,,,,,,,,36.06959684799949,36.069617840999854,36.06962397999996,36.06963645399992,,,,,,,,,,,,,,,,,,,,,,,,,,,,,,,,,,,,,,,,,,,,,,,,,,577530,001,2024-03-21_18h40.54.611,Test1,2023.2.3,None,2024-03-21 18h41.05.266844 -0300,
1,0,1,0,7,0,7,0,4,0,4,0,,,,,,,,,,,,,,,,,,,,,,,,,36.08238010000059,,,,,,,,,,,,,,,,,,,,,,,,,36.069777488999534,36.069798638000066,36.069804707,36.06981713700043,,,,,,,,,,,,,,,,,,,,,,,,,,,,,,,,,,,,,,,,,,,,,,,,,,577530,001,2024-03-21_18h40.54.611,Test1,2023.2.3,None,2024-03-21 18h41.05.266844 -0300,
1,0,1,0,7,0,7,0,5,0,5,0,,,,,,,,,,,,,,,,,,,,,,,,,36.08238010000059,,,,,,,,,,,,,,,,,,,,,,,,,36.06995833499968,36.06998021000072,36.06998630999988,36.06999854800051,,,,,,,,,,,,,,,,,,,,,,,,,,,,,,,,,,,,,,,,,,,,,,,,,,577530,001,2024-03-21_18h40.54.611,Test1,2023.2.3,None,2024-03-21 18h41.05.266844 -0300,
1,0,1,0,7,0,7,0,6,0,6,0,,,,,,,,,,,,,,,,,,,,,,,,,36.08238010000059,,,,,,,,,,,,,,,,,,,,,,,,,36.07013895199998,36.070160749000934,36.07016677200045,36.07017917000121,,,,,,,,,,,,,,,,,,,,,,,,,,,,,,,,,,,,,,,,,,,,,,,,,,577530,001,2024-03-21_18h40.54.611,Test1,2023.2.3,None,2024-03-21 18h41.05.266844 -0300,
1,0,1,0,7,0,7,0,7,0,7,0,,,,,,,,,,,,,,,,,,,,,,,,,36.08238010000059,,,,,,,,,,,,,,,,,,,,,,,,,36.07031535399983,36.07034139499956,36.07034784300049,36.07036061799954,,,,,,,,,,,,,,,,,,,,,,,,,,,,,,,,,,,,,,,,,,,,,,,,,,577530,001,2024-03-21_18h40.54.611,Test1,2023.2.3,None,2024-03-21 18h41.05.266844 -0300,
1,0,1,0,7,0,7,0,8,0,8,0,,,,,,,,,,,,,,,,,,,,,,,,,36.08238010000059,,,,,,,,,,,,,,,,,,,,,,,,,36.07050448600057,36.07052600499992,36.07053219199952,36.07054468500064,,,,,,,,,,,,,,,,,,,,,,,,,,,,,,,,,,,,,,,,,,,,,,,,,,577530,001,2024-03-21_18h40.54.611,Test1,2023.2.3,None,2024-03-21 18h41.05.266844 -0300,
1,0,1,0,7,0,7,0,9,0,9,0,,,,,,,,,,,,,,,,,,,,,,,,,36.08238010000059,,,,,,,,,,,,,,,,,,,,,,,,,36.07083850500021,36.07086227000036,36.070868610000616,36.070881241999814,,,,,,,,,,,,,,,,,,,,,,,,,,,,,,,,,,,,,,,,,,,,,,,,,,577530,001,2024-03-21_18h40.54.611,Test1,2023.2.3,None,2024-03-21 18h41.05.266844 -0300,
1,0,1,0,7,0,7,0,,,,,,,,,,,,,,,,,,,,,,,,,,,,,,,,,,,,,,,,,,,,,,,,,,,,,,,,,,,,,,,,,,,,,,,,,,,,,,,,,,,,,,,,,,,,,,,,,,,,,,,,,,,577530,001,2024-03-21_18h40.54.611,Test1,2023.2.3,None,2024-03-21 18h41.05.266844 -0300,
1,0,1,0,8,0,8,0,0,0,0,0,,,,,,,,,,,,,,,,,,,,,,,,,36.08238010000059,,,,,,,,,,,,,,,,,,,,,,,,,36.071389197000826,36.07141449899973,36.07142107100117,36.07143455200094,,,,,,,,,,,,,,,,,,,,,,,,,,,,,,,,,,,,,,,,,,,,,,,,,,577530,001,2024-03-21_18h40.54.611,Test1,2023.2.3,None,2024-03-21 18h41.05.266844 -0300,
1,0,1,0,8,0,8,0,1,0,1,0,,,,,,,,,,,,,,,,,,,,,,,,,36.08238010000059,,,,,,,,,,,,,,,,,,,,,,,,,36.07158252800036,36.071605000001,36.07161126900064,36.071623854999416,,,,,,,,,,,,,,,,,,,,,,,,,,,,,,,,,,,,,,,,,,,,,,,,,,577530,001,2024-03-21_18h40.54.611,Test1,2023.2.3,None,2024-03-21 18h41.05.266844 -0300,
1,0,1,0,8,0,8,0,2,0,2,0,,,,,,,,,,,,,,,,,,,,,,,,,36.08238010000059,,,,,,,,,,,,,,,,,,,,,,,,,36.07176821400026,36.071789878000345,36.07179614500092,36.07180887300092,,,,,,,,,,,,,,,,,,,,,,,,,,,,,,,,,,,,,,,,,,,,,,,,,,577530,001,2024-03-21_18h40.54.611,Test1,2023.2.3,None,2024-03-21 18h41.05.266844 -0300,
1,0,1,0,8,0,8,0,3,0,3,0,,,,,,,,,,,,,,,,,,,,,,,,,36.08238010000059,,,,,,,,,,,,,,,,,,,,,,,,,36.071950896999624,36.0719720699999,36.07197825900039,36.071994240001004,,,,,,,,,,,,,,,,,,,,,,,,,,,,,,,,,,,,,,,,,,,,,,,,,,577530,001,2024-03-21_18h40.54.611,Test1,2023.2.3,None,2024-03-21 18h41.05.266844 -0300,
1,0,1,0,8,0,8,0,4,0,4,0,,,,,,,,,,,,,,,,,,,,,,,,,36.08238010000059,,,,,,,,,,,,,,,,,,,,,,,,,36.07213557000068,36.0721574119998,36.07216335300109,36.0721760739998,,,,,,,,,,,,,,,,,,,,,,,,,,,,,,,,,,,,,,,,,,,,,,,,,,577530,001,2024-03-21_18h40.54.611,Test1,2023.2.3,None,2024-03-21 18h41.05.266844 -0300,
1,0,1,0,8,0,8,0,5,0,5,0,,,,,,,,,,,,,,,,,,,,,,,,,36.08238010000059,,,,,,,,,,,,,,,,,,,,,,,,,36.07231228800083,36.0723338429998,36.07234004299971,36.07235260900052,,,,,,,,,,,,,,,,,,,,,,,,,,,,,,,,,,,,,,,,,,,,,,,,,,577530,001,2024-03-21_18h40.54.611,Test1,2023.2.3,None,2024-03-21 18h41.05.266844 -0300,
1,0,1,0,8,0,8,0,6,0,6,0,,,,,,,,,,,,,,,,,,,,,,,,,36.08238010000059,,,,,,,,,,,,,,,,,,,,,,,,,36.072493195999414,36.07251458599967,36.072520890000305,36.07253341100113,,,,,,,,,,,,,,,,,,,,,,,,,,,,,,,,,,,,,,,,,,,,,,,,,,577530,001,2024-03-21_18h40.54.611,Test1,2023.2.3,None,2024-03-21 18h41.05.266844 -0300,
1,0,1,0,8,0,8,0,7,0,7,0,,,,,,,,,,,,,,,,,,,,,,,,,36.08238010000059,,,,,,,,,,,,,,,,,,,,,,,,,36.072674094999456,36.072695808999924,36.072702028001004,36.07271479500014,,,,,,,,,,,,,,,,,,,,,,,,,,,,,,,,,,,,,,,,,,,,,,,,,,577530,001,2024-03-21_18h40.54.611,Test1,2023.2.3,None,2024-03-21 18h41.05.266844 -0300,
1,0,1,0,8,0,8,0,8,0,8,0,,,,,,,,,,,,,,,,,,,,,,,,,36.08238010000059,,,,,,,,,,,,,,,,,,,,,,,,,36.07285209700058,36.07287358600115,36.07287996000014,36.07289241500075,,,,,,,,,,,,,,,,,,,,,,,,,,,,,,,,,,,,,,,,,,,,,,,,,,577530,001,2024-03-21_18h40.54.611,Test1,2023.2.3,None,2024-03-21 18h41.05.266844 -0300,
1,0,1,0,8,0,8,0,9,0,9,0,,,,,,,,,,,,,,,,,,,,,,,,,36.08238010000059,,,,,,,,,,,,,,,,,,,,,,,,,36.07302637900102,36.07304741200096,36.07305352000003,36.073065685000984,,,,,,,,,,,,,,,,,,,,,,,,,,,,,,,,,,,,,,,,,,,,,,,,,,577530,001,2024-03-21_18h40.54.611,Test1,2023.2.3,None,2024-03-21 18h41.05.266844 -0300,
1,0,1,0,8,0,8,0,,,,,,,,,,,,,,,,,,,,,,,,,,,,,,,,,,,,,,,,,,,,,,,,,,,,,,,,,,,,,,,,,,,,,,,,,,,,,,,,,,,,,,,,,,,,,,,,,,,,,,,,,,,577530,001,2024-03-21_18h40.54.611,Test1,2023.2.3,None,2024-03-21 18h41.05.266844 -0300,
1,0,1,0,9,0,9,0,0,0,0,0,,,,,,,,,,,,,,,,,,,,,,,,,36.08238010000059,,,,,,,,,,,,,,,,,,,,,,,,,36.0735491230007,36.07357445700109,36.073581055999966,36.07359459200052,,,,,,,,,,,,,,,,,,,,,,,,,,,,,,,,,,,,,,,,,,,,,,,,,,577530,001,2024-03-21_18h40.54.611,Test1,2023.2.3,None,2024-03-21 18h41.05.266844 -0300,
1,0,1,0,9,0,9,0,1,0,1,0,,,,,,,,,,,,,,,,,,,,,,,,,36.08238010000059,,,,,,,,,,,,,,,,,,,,,,,,,36.0737373209995,36.073760010000115,36.073766290001004,36.073779165000815,,,,,,,,,,,,,,,,,,,,,,,,,,,,,,,,,,,,,,,,,,,,,,,,,,577530,001,2024-03-21_18h40.54.611,Test1,2023.2.3,None,2024-03-21 18h41.05.266844 -0300,
1,0,1,0,9,0,9,0,2,0,2,0,,,,,,,,,,,,,,,,,,,,,,,,,36.08238010000059,,,,,,,,,,,,,,,,,,,,,,,,,36.07392955599971,36.07395082599942,36.07395671499944,36.07397227900037,,,,,,,,,,,,,,,,,,,,,,,,,,,,,,,,,,,,,,,,,,,,,,,,,,577530,001,2024-03-21_18h40.54.611,Test1,2023.2.3,None,2024-03-21 18h41.05.266844 -0300,
1,0,1,0,9,0,9,0,3,0,3,0,,,,,,,,,,,,,,,,,,,,,,,,,36.08238010000059,,,,,,,,,,,,,,,,,,,,,,,,,36.07411365600092,36.07413467399965,36.07414069200058,36.07415321799999,,,,,,,,,,,,,,,,,,,,,,,,,,,,,,,,,,,,,,,,,,,,,,,,,,577530,001,2024-03-21_18h40.54.611,Test1,2023.2.3,None,2024-03-21 18h41.05.266844 -0300,
1,0,1,0,9,0,9,0,4,0,4,0,,,,,,,,,,,,,,,,,,,,,,,,,36.08238010000059,,,,,,,,,,,,,,,,,,,,,,,,,36.074287785000706,36.074309421999715,36.07431545899999,36.07432790600069,,,,,,,,,,,,,,,,,,,,,,,,,,,,,,,,,,,,,,,,,,,,,,,,,,577530,001,2024-03-21_18h40.54.611,Test1,2023.2.3,None,2024-03-21 18h41.05.266844 -0300,
1,0,1,0,9,0,9,0,5,0,5,0,,,,,,,,,,,,,,,,,,,,,,,,,36.08238010000059,,,,,,,,,,,,,,,,,,,,,,,,,36.074466624000706,36.0744875750006,36.074493531999906,36.074505796001176,,,,,,,,,,,,,,,,,,,,,,,,,,,,,,,,,,,,,,,,,,,,,,,,,,577530,001,2024-03-21_18h40.54.611,Test1,2023.2.3,None,2024-03-21 18h41.05.266844 -0300,
1,0,1,0,9,0,9,0,6,0,6,0,,,,,,,,,,,,,,,,,,,,,,,,,36.08238010000059,,,,,,,,,,,,,,,,,,,,,,,,,36.07464747999984,36.0746689839998,36.07467507000001,36.074690790001114,,,,,,,,,,,,,,,,,,,,,,,,,,,,,,,,,,,,,,,,,,,,,,,,,,577530,001,2024-03-21_18h40.54.611,Test1,2023.2.3,None,2024-03-21 18h41.05.266844 -0300,
