return_to_homepage.thisRepN,return_to_homepage.thisTrialN,return_to_homepage.thisN,return_to_homepage.thisIndex,trials_1.thisRepN,trials_1.thisTrialN,trials_1.thisN,trials_1.thisIndex,repetition_1.thisRepN,repetition_1.thisTrialN,repetition_1.thisN,repetition_1.thisIndex,trials_2.thisRepN,trials_2.thisTrialN,trials_2.thisN,trials_2.thisIndex,repetition_2.thisRepN,repetition_2.thisTrialN,repetition_2.thisN,repetition_2.thisIndex,trials_3.thisRepN,trials_3.thisTrialN,trials_3.thisN,trials_3.thisIndex,repetition_3.thisRepN,repetition_3.thisTrialN,repetition_3.thisN,repetition_3.thisIndex,trials_4.thisRepN,trials_4.thisTrialN,trials_4.thisN,trials_4.thisIndex,repetition_4.thisRepN,repetition_4.thisTrialN,repetition_4.thisN,repetition_4.thisIndex,thisRow.t,notes,WelcomeScreen.started,welcome_message.started,caution_sign.started,WelcomeScreen.stopped,PickTest.started,button_t1.started,button_t2.started,button_t3.started,button_t4.started,text.started,PickTest.stopped,button_t1.numClicks,button_t1.timesOn,button_t1.timesOff,button_t2.numClicks,button_t2.timesOn,button_t2.timesOff,button_t3.numClicks,button_t3.timesOn,button_t3.timesOff,button_t4.numClicks,button_t4.timesOn,button_t4.timesOff,test_1.started,test_1.stopped,blank1s_t1.started,blank1s_t1.stopped,test_2.started,test_2.stopped,blank1s_t2.started,blank1s_t2.stopped,test_3.started,test_3.stopped,blank1s_t3.started,blank1s_t3.stopped,test_4.started,test_4.stopped,blank1s_t4.started,blank1s_t4.stopped,obj1_t3.started,obj2_t3.started,obj3_t3.started,obj4_t3.started,test_3_mess.started,obj1_t3.stopped,obj2_t3.stopped,obj3_t3.stopped,obj4_t3.stopped,test_3_mess.stopped,blank_screen_t3_mess.started,blank_screen_t3_mess.stopped,participant,session,date,expName,psychopyVersion,frameRate,expStart,
0,0,0,0,0,0,0,0,0,0,0,0,,,,,,,,,,,,,,,,,,,,,,,,,20.13052775399956,,0.02226169099958497,0.06605284999932337,0.06605284999932337,10.009907643998304,10.01136029099871,10.053381529000035,10.053381529000035,10.053381529000035,10.053381529000035,10.053381529000035,20.010715021999204,0,,,0,,,0,,,0,,,20.01630740099972,20.016367167998396,20.01637864699842,20.016397734998463,,,,,,,,,,,,,,,,,,,,,,,,,635511,001,2024-03-21_18h35.42.337,Test1,2023.2.3,121.04004774497146,2024-03-21 18h35.56.037505 -0300,
0,0,0,0,0,0,0,0,1,0,1,0,,,,,,,,,,,,,,,,,,,,,,,,,20.13052775399956,,,,,,,,,,,,,,,,,,,,,,,,,20.016593361999185,20.016621353999653,20.016629661999104,20.016645383999276,,,,,,,,,,,,,,,,,,,,,,,,,635511,001,2024-03-21_18h35.42.337,Test1,2023.2.3,121.04004774497146,2024-03-21 18h35.56.037505 -0300,
0,0,0,0,0,0,0,0,2,0,2,0,,,,,,,,,,,,,,,,,,,,,,,,,20.13052775399956,,,,,,,,,,,,,,,,,,,,,,,,,20.016828074998557,20.016855256999406,20.016863391998413,20.01687905399922,,,,,,,,,,,,,,,,,,,,,,,,,635511,001,2024-03-21_18h35.42.337,Test1,2023.2.3,121.04004774497146,2024-03-21 18h35.56.037505 -0300,
0,0,0,0,0,0,0,0,3,0,3,0,,,,,,,,,,,,,,,,,,,,,,,,,20.13052775399956,,,,,,,,,,,,,,,,,,,,,,,,,20.017056259999663,20.017083041999285,20.017090880999604,20.017106624998632,,,,,,,,,,,,,,,,,,,,,,,,,635511,001,2024-03-21_18h35.42.337,Test1,2023.2.3,121.04004774497146,2024-03-21 18h35.56.037505 -0300,
0,0,0,0,0,0,0,0,4,0,4,0,,,,,,,,,,,,,,,,,,,,,,,,,20.13052775399956,,,,,,,,,,,,,,,,,,,,,,,,,20.017283529999986,20.017309660999672,20.01731742999982,20.017332464998617,,,,,,,,,,,,,,,,,,,,,,,,,635511,001,2024-03-21_18h35.42.337,Test1,2023.2.3,121.04004774497146,2024-03-21 18h35.56.037505 -0300,
0,0,0,0,0,0,0,0,5,0,5,0,,,,,,,,,,,,,,,,,,,,,,,,,20.13052775399956,,,,,,,,,,,,,,,,,,,,,,,,,20.017508416000055,20.017534302998683,20.017542033998325,20.01755697399858,,,,,,,,,,,,,,,,,,,,,,,,,635511,001,2024-03-21_18h35.42.337,Test1,2023.2.3,121.04004774497146,2024-03-21 18h35.56.037505 -0300,
0,0,0,0,0,0,0,0,6,0,6,0,,,,,,,,,,,,,,,,,,,,,,,,,20.13052775399956,,,,,,,,,,,,,,,,,,,,,,,,,20.017734991999532,20.017760727998393,20.01776840799903,20.017783066999982,,,,,,,,,,,,,,,,,,,,,,,,,635511,001,2024-03-21_18h35.42.337,Test1,2023.2.3,121.04004774497146,2024-03-21 18h35.56.037505 -0300,
0,0,0,0,0,0,0,0,7,0,7,0,,,,,,,,,,,,,,,,,,,,,,,,,20.13052775399956,,,,,,,,,,,,,,,,,,,,,,,,,20.017956734998734,20.01798231199973,20.017990006999753,20.01800502900005,,,,,,,,,,,,,,,,,,,,,,,,,635511,001,2024-03-21_18h35.42.337,Test1,2023.2.3,121.04004774497146,2024-03-21 18h35.56.037505 -0300,
0,0,0,0,0,0,0,0,8,0,8,0,,,,,,,,,,,,,,,,,,,,,,,,,20.13052775399956,,,,,,,,,,,,,,,,,,,,,,,,,20.018178660999183,20.018204116999186,20.018211661999885,20.018226375999802,,,,,,,,,,,,,,,,,,,,,,,,,635511,001,2024-03-21_18h35.42.337,Test1,2023.2.3,121.04004774497146,2024-03-21 18h35.56.037505 -0300,
0,0,0,0,0,0,0,0,9,0,9,0,,,,,,,,,,,,,,,,,,,,,,,,,20.13052775399956,,,,,,,,,,,,,,,,,,,,,,,,,20.018400690998533,20.018426680999255,20.018434255998727,20.018448766999427,,,,,,,,,,,,,,,,,,,,,,,,,635511,001,2024-03-21_18h35.42.337,Test1,2023.2.3,121.04004774497146,2024-03-21 18h35.56.037505 -0300,
0,0,0,0,0,0,0,0,,,,,,,,,,,,,,,,,,,,,,,,,,,,,,,,,,,,,,,,,,,,,,,,,,,,,,,,,,,,,,,,,,,,,,,,,,,,,,,,,,635511,001,2024-03-21_18h35.42.337,Test1,2023.2.3,121.04004774497146,2024-03-21 18h35.56.037505 -0300,
0,0,0,0,1,0,1,0,0,0,0,0,,,,,,,,,,,,,,,,,,,,,,,,,20.13052775399956,,,,,,,,,,,,,,,,,,,,,,,,,20.019060437000007,20.019086913998763,20.019094194998615,20.01910791299997,,,,,,,,,,,,,,,,,,,,,,,,,635511,001,2024-03-21_18h35.42.337,Test1,2023.2.3,121.04004774497146,2024-03-21 18h35.56.037505 -0300,
0,0,0,0,1,0,1,0,1,0,1,0,,,,,,,,,,,,,,,,,,,,,,,,,20.13052775399956,,,,,,,,,,,,,,,,,,,,,,,,,20.019264040998678,20.019288134999442,20.019294962999993,20.019308364999233,,,,,,,,,,,,,,,,,,,,,,,,,635511,001,2024-03-21_18h35.42.337,Test1,2023.2.3,121.04004774497146,2024-03-21 18h35.56.037505 -0300,
0,0,0,0,1,0,1,0,2,0,2,0,,,,,,,,,,,,,,,,,,,,,,,,,20.13052775399956,,,,,,,,,,,,,,,,,,,,,,,,,20.019472319998386,20.019495291999192,20.01950183199915,20.019514791998517,,,,,,,,,,,,,,,,,,,,,,,,,635511,001,2024-03-21_18h35.42.337,Test1,2023.2.3,121.04004774497146,2024-03-21 18h35.56.037505 -0300,
0,0,0,0,1,0,1,0,3,0,3,0,,,,,,,,,,,,,,,,,,,,,,,,,20.13052775399956,,,,,,,,,,,,,,,,,,,,,,,,,20.019666036998387,20.0196880329986,20.01969452999947,20.019707348999873,,,,,,,,,,,,,,,,,,,,,,,,,635511,001,2024-03-21_18h35.42.337,Test1,2023.2.3,121.04004774497146,2024-03-21 18h35.56.037505 -0300,
0,0,0,0,1,0,1,0,4,0,4,0,,,,,,,,,,,,,,,,,,,,,,,,,20.13052775399956,,,,,,,,,,,,,,,,,,,,,,,,,20.01985855699968,20.01988055399852,20.01988706499833,20.019899506,,,,,,,,,,,,,,,,,,,,,,,,,635511,001,2024-03-21_18h35.42.337,Test1,2023.2.3,121.04004774497146,2024-03-21 18h35.56.037505 -0300,
0,0,0,0,1,0,1,0,5,0,5,0,,,,,,,,,,,,,,,,,,,,,,,,,20.13052775399956,,,,,,,,,,,,,,,,,,,,,,,,,20.02005044699945,20.020073177000086,20.020079771999008,20.020092344999284,,,,,,,,,,,,,,,,,,,,,,,,,635511,001,2024-03-21_18h35.42.337,Test1,2023.2.3,121.04004774497146,2024-03-21 18h35.56.037505 -0300,
0,0,0,0,1,0,1,0,6,0,6,0,,,,,,,,,,,,,,,,,,,,,,,,,20.13052775399956,,,,,,,,,,,,,,,,,,,,,,,,,20.020240398998794,20.020262645999537,20.020269146998544,20.020281790999434,,,,,,,,,,,,,,,,,,,,,,,,,635511,001,2024-03-21_18h35.42.337,Test1,2023.2.3,121.04004774497146,2024-03-21 18h35.56.037505 -0300,
0,0,0,0,1,0,1,0,7,0,7,0,,,,,,,,,,,,,,,,,,,,,,,,,20.13052775399956,,,,,,,,,,,,,,,,,,,,,,,,,20.020434692998606,20.020457008999074,20.020463476999794,20.020475959998294,,,,,,,,,,,,,,,,,,,,,,,,,635511,001,2024-03-21_18h35.42.337,Test1,2023.2.3,121.04004774497146,2024-03-21 18h35.56.037505 -0300,
0,0,0,0,1,0,1,0,8,0,8,0,,,,,,,,,,,,,,,,,,,,,,,,,20.13052775399956,,,,,,,,,,,,,,,,,,,,,,,,,20.020633571999497,20.02065571499952,20.020662206999987,20.020675076999396,,,,,,,,,,,,,,,,,,,,,,,,,635511,001,2024-03-21_18h35.42.337,Test1,2023.2.3,121.04004774497146,2024-03-21 18h35.56.037505 -0300,
0,0,0,0,1,0,1,0,9,0,9,0,,,,,,,,,,,,,,,,,,,,,,,,,20.13052775399956,,,,,,,,,,,,,,,,,,,,,,,,,20.020918546999383,20.020942356999512,20.02094892199966,20.02096212199831,,,,,,,,,,,,,,,,,,,,,,,,,635511,001,2024-03-21_18h35.42.337,Test1,2023.2.3,121.04004774497146,2024-03-21 18h35.56.037505 -0300,
0,0,0,0,1,0,1,0,,,,,,,,,,,,,,,,,,,,,,,,,,,,,,,,,,,,,,,,,,,,,,,,,,,,,,,,,,,,,,,,,,,,,,,,,,,,,,,,,,635511,001,2024-03-21_18h35.42.337,Test1,2023.2.3,121.04004774497146,2024-03-21 18h35.56.037505 -0300,
0,0,0,0,2,0,2,0,0,0,0,0,,,,,,,,,,,,,,,,,,,,,,,,,20.13052775399956,,,,,,,,,,,,,,,,,,,,,,,,,20.021490628998436,20.021516900998904,20.02152391799973,20.02153756199914,,,,,,,,,,,,,,,,,,,,,,,,,635511,001,2024-03-21_18h35.42.337,Test1,2023.2.3,121.04004774497146,2024-03-21 18h35.56.037505 -0300,
0,0,0,0,2,0,2,0,1,0,1,0,,,,,,,,,,,,,,,,,,,,,,,,,20.13052775399956,,,,,,,,,,,,,,,,,,,,,,,,,20.021696283998608,20.021719405998738,20.02172593599971,20.021738880999692,,,,,,,,,,,,,,,,,,,,,,,,,635511,001,2024-03-21_18h35.42.337,Test1,2023.2.3,121.04004774497146,2024-03-21 18h35.56.037505 -0300,
0,0,0,0,2,0,2,0,2,0,2,0,,,,,,,,,,,,,,,,,,,,,,,,,20.13052775399956,,,,,,,,,,,,,,,,,,,,,,,,,20.02189343399914,20.021916505998888,20.021922990999883,20.021935917999144,,,,,,,,,,,,,,,,,,,,,,,,,635511,001,2024-03-21_18h35.42.337,Test1,2023.2.3,121.04004774497146,2024-03-21 18h35.56.037505 -0300,
0,0,0,0,2,0,2,0,3,0,3,0,,,,,,,,,,,,,,,,,,,,,,,,,20.13052775399956,,,,,,,,,,,,,,,,,,,,,,,,,20.022119829000076,20.022144016998936,20.02215079799862,20.022165087999383,,,,,,,,,,,,,,,,,,,,,,,,,635511,001,2024-03-21_18h35.42.337,Test1,2023.2.3,121.04004774497146,2024-03-21 18h35.56.037505 -0300,
0,0,0,0,2,0,2,0,4,0,4,0,,,,,,,,,,,,,,,,,,,,,,,,,20.13052775399956,,,,,,,,,,,,,,,,,,,,,,,,,20.022324221999952,20.022347957999955,20.0223545989993,20.02236755800004,,,,,,,,,,,,,,,,,,,,,,,,,635511,001,2024-03-21_18h35.42.337,Test1,2023.2.3,121.04004774497146,2024-03-21 18h35.56.037505 -0300,
0,0,0,0,2,0,2,0,5,0,5,0,,,,,,,,,,,,,,,,,,,,,,,,,20.13052775399956,,,,,,,,,,,,,,,,,,,,,,,,,20.022525691998453,20.02254845599964,20.0225548419985,20.02256758999829,,,,,,,,,,,,,,,,,,,,,,,,,635511,001,2024-03-21_18h35.42.337,Test1,2023.2.3,121.04004774497146,2024-03-21 18h35.56.037505 -0300,
0,0,0,0,2,0,2,0,6,0,6,0,,,,,,,,,,,,,,,,,,,,,,,,,20.13052775399956,,,,,,,,,,,,,,,,,,,,,,,,,20.022718423999322,20.02274042799945,20.022746968999854,20.022759428999052,,,,,,,,,,,,,,,,,,,,,,,,,635511,001,2024-03-21_18h35.42.337,Test1,2023.2.3,121.04004774497146,2024-03-21 18h35.56.037505 -0300,
0,0,0,0,2,0,2,0,7,0,7,0,,,,,,,,,,,,,,,,,,,,,,,,,20.13052775399956,,,,,,,,,,,,,,,,,,,,,,,,,20.02290896899831,20.0229310729992,20.02293776099941,20.02295962199969,,,,,,,,,,,,,,,,,,,,,,,,,635511,001,2024-03-21_18h35.42.337,Test1,2023.2.3,121.04004774497146,2024-03-21 18h35.56.037505 -0300,
0,0,0,0,2,0,2,0,8,0,8,0,,,,,,,,,,,,,,,,,,,,,,,,,20.13052775399956,,,,,,,,,,,,,,,,,,,,,,,,,20.023117716998968,20.02314008599933,20.023146642999563,20.023159626998677,,,,,,,,,,,,,,,,,,,,,,,,,635511,001,2024-03-21_18h35.42.337,Test1,2023.2.3,121.04004774497146,2024-03-21 18h35.56.037505 -0300,
0,0,0,0,2,0,2,0,9,0,9,0,,,,,,,,,,,,,,,,,,,,,,,,,20.13052775399956,,,,,,,,,,,,,,,,,,,,,,,,,20.023316348999288,20.023339721999946,20.023346277999735,20.02335899499849,,,,,,,,,,,,,,,,,,,,,,,,,635511,001,2024-03-21_18h35.42.337,Test1,2023.2.3,121.04004774497146,2024-03-21 18h35.56.037505 -0300,
0,0,0,0,2,0,2,0,,,,,,,,,,,,,,,,,,,,,,,,,,,,,,,,,,,,,,,,,,,,,,,,,,,,,,,,,,,,,,,,,,,,,,,,,,,,,,,,,,635511,001,2024-03-21_18h35.42.337,Test1,2023.2.3,121.04004774497146,2024-03-21 18h35.56.037505 -0300,
0,0,0,0,3,0,3,0,0,0,0,0,,,,,,,,,,,,,,,,,,,,,,,,,20.13052775399956,,,,,,,,,,,,,,,,,,,,,,,,,20.023889866999525,20.023915488000057,20.023922499000037,20.023935981998875,,,,,,,,,,,,,,,,,,,,,,,,,635511,001,2024-03-21_18h35.42.337,Test1,2023.2.3,121.04004774497146,2024-03-21 18h35.56.037505 -0300,
0,0,0,0,3,0,3,0,1,0,1,0,,,,,,,,,,,,,,,,,,,,,,,,,20.13052775399956,,,,,,,,,,,,,,,,,,,,,,,,,20.024118896999425,20.024184496998714,20.024195766998673,20.02421462699931,,,,,,,,,,,,,,,,,,,,,,,,,635511,001,2024-03-21_18h35.42.337,Test1,2023.2.3,121.04004774497146,2024-03-21 18h35.56.037505 -0300,
0,0,0,0,3,0,3,0,2,0,2,0,,,,,,,,,,,,,,,,,,,,,,,,,20.13052775399956,,,,,,,,,,,,,,,,,,,,,,,,,20.02443141999902,20.024457493998852,20.024464733998684,20.02447790199949,,,,,,,,,,,,,,,,,,,,,,,,,635511,001,2024-03-21_18h35.42.337,Test1,2023.2.3,121.04004774497146,2024-03-21 18h35.56.037505 -0300,
0,0,0,0,3,0,3,0,3,0,3,0,,,,,,,,,,,,,,,,,,,,,,,,,20.13052775399956,,,,,,,,,,,,,,,,,,,,,,,,,20.024641780999445,20.024665036999068,20.024671940998815,20.024685131998922,,,,,,,,,,,,,,,,,,,,,,,,,635511,001,2024-03-21_18h35.42.337,Test1,2023.2.3,121.04004774497146,2024-03-21 18h35.56.037505 -0300,
0,0,0,0,3,0,3,0,4,0,4,0,,,,,,,,,,,,,,,,,,,,,,,,,20.13052775399956,,,,,,,,,,,,,,,,,,,,,,,,,20.02484096599983,20.024863090999133,20.02486971899998,20.024882723999326,,,,,,,,,,,,,,,,,,,,,,,,,635511,001,2024-03-21_18h35.42.337,Test1,2023.2.3,121.04004774497146,2024-03-21 18h35.56.037505 -0300,
0,0,0,0,3,0,3,0,5,0,5,0,,,,,,,,,,,,,,,,,,,,,,,,,20.13052775399956,,,,,,,,,,,,,,,,,,,,,,,,,20.02505374699831,20.025075206998736,20.02508127100009,20.025092917998336,,,,,,,,,,,,,,,,,,,,,,,,,635511,001,2024-03-21_18h35.42.337,Test1,2023.2.3,121.04004774497146,2024-03-21 18h35.56.037505 -0300,
0,0,0,0,3,0,3,0,6,0,6,0,,,,,,,,,,,,,,,,,,,,,,,,,20.13052775399956,,,,,,,,,,,,,,,,,,,,,,,,,20.025237341998945,20.0252577629999,20.02526371699969,20.02527532199929,,,,,,,,,,,,,,,,,,,,,,,,,635511,001,2024-03-21_18h35.42.337,Test1,2023.2.3,121.04004774497146,2024-03-21 18h35.56.037505 -0300,
0,0,0,0,3,0,3,0,7,0,7,0,,,,,,,,,,,,,,,,,,,,,,,,,20.13052775399956,,,,,,,,,,,,,,,,,,,,,,,,,20.025410221998754,20.025430570000026,20.025436330999582,20.025447954998526,,,,,,,,,,,,,,,,,,,,,,,,,635511,001,2024-03-21_18h35.42.337,Test1,2023.2.3,121.04004774497146,2024-03-21 18h35.56.037505 -0300,
0,0,0,0,3,0,3,0,8,0,8,0,,,,,,,,,,,,,,,,,,,,,,,,,20.13052775399956,,,,,,,,,,,,,,,,,,,,,,,,,20.02558911699998,20.025609491998694,20.02563439699952,20.025646611999036,,,,,,,,,,,,,,,,,,,,,,,,,635511,001,2024-03-21_18h35.42.337,Test1,2023.2.3,121.04004774497146,2024-03-21 18h35.56.037505 -0300,
0,0,0,0,3,0,3,0,9,0,9,0,,,,,,,,,,,,,,,,,,,,,,,,,20.13052775399956,,,,,,,,,,,,,,,,,,,,,,,,,20.0257976469984,20.025817216999712,20.025823198999205,20.025834557998678,,,,,,,,,,,,,,,,,,,,,,,,,635511,001,2024-03-21_18h35.42.337,Test1,2023.2.3,121.04004774497146,2024-03-21 18h35.56.037505 -0300,
0,0,0,0,3,0,3,0,,,,,,,,,,,,,,,,,,,,,,,,,,,,,,,,,,,,,,,,,,,,,,,,,,,,,,,,,,,,,,,,,,,,,,,,,,,,,,,,,,635511,001,2024-03-21_18h35.42.337,Test1,2023.2.3,121.04004774497146,2024-03-21 18h35.56.037505 -0300,
0,0,0,0,4,0,4,0,0,0,0,0,,,,,,,,,,,,,,,,,,,,,,,,,20.13052775399956,,,,,,,,,,,,,,,,,,,,,,,,,20.02633901199988,20.026363098999354,20.026369896999313,20.026381974999822,,,,,,,,,,,,,,,,,,,,,,,,,635511,001,2024-03-21_18h35.42.337,Test1,2023.2.3,121.04004774497146,2024-03-21 18h35.56.037505 -0300,
0,0,0,0,4,0,4,0,1,0,1,0,,,,,,,,,,,,,,,,,,,,,,,,,20.13052775399956,,,,,,,,,,,,,,,,,,,,,,,,,20.02652738299912,20.02654923299997,20.026555364998785,20.026568925999527,,,,,,,,,,,,,,,,,,,,,,,,,635511,001,2024-03-21_18h35.42.337,Test1,2023.2.3,121.04004774497146,2024-03-21 18h35.56.037505 -0300,
0,0,0,0,4,0,4,0,2,0,2,0,,,,,,,,,,,,,,,,,,,,,,,,,20.13052775399956,,,,,,,,,,,,,,,,,,,,,,,,,20.02670623799895,20.02672651499961,20.026732578999145,20.026744643999336,,,,,,,,,,,,,,,,,,,,,,,,,635511,001,2024-03-21_18h35.42.337,Test1,2023.2.3,121.04004774497146,2024-03-21 18h35.56.037505 -0300,
0,0,0,0,4,0,4,0,3,0,3,0,,,,,,,,,,,,,,,,,,,,,,,,,20.13052775399956,,,,,,,,,,,,,,,,,,,,,,,,,20.0268798599991,20.02690014199834,20.026906141998552,20.026917851999315,,,,,,,,,,,,,,,,,,,,,,,,,635511,001,2024-03-21_18h35.42.337,Test1,2023.2.3,121.04004774497146,2024-03-21 18h35.56.037505 -0300,
0,0,0,0,4,0,4,0,4,0,4,0,,,,,,,,,,,,,,,,,,,,,,,,,20.13052775399956,,,,,,,,,,,,,,,,,,,,,,,,,20.027056756998718,20.02707608199853,20.027082059999884,20.027093359998617,,,,,,,,,,,,,,,,,,,,,,,,,635511,001,2024-03-21_18h35.42.337,Test1,2023.2.3,121.04004774497146,2024-03-21 18h35.56.037505 -0300,
0,0,0,0,4,0,4,0,5,0,5,0,,,,,,,,,,,,,,,,,,,,,,,,,20.13052775399956,,,,,,,,,,,,,,,,,,,,,,,,,20.027232998998443,20.027253290998488,20.0272592099991,20.027271041999484,,,,,,,,,,,,,,,,,,,,,,,,,635511,001,2024-03-21_18h35.42.337,Test1,2023.2.3,121.04004774497146,2024-03-21 18h35.56.037505 -0300,
0,0,0,0,4,0,4,0,6,0,6,0,,,,,,,,,,,,,,,,,,,,,,,,,20.13052775399956,,,,,,,,,,,,,,,,,,,,,,,,,20.027404527998442,20.02742806199967,20.027434034998805,20.02744630699999,,,,,,,,,,,,,,,,,,,,,,,,,635511,001,2024-03-21_18h35.42.337,Test1,2023.2.3,121.04004774497146,2024-03-21 18h35.56.037505 -0300,
0,0,0,0,4,0,4,0,7,0,7,0,,,,,,,,,,,,,,,,,,,,,,,,,20.13052775399956,,,,,,,,,,,,,,,,,,,,,,,,,20.027587821999987,20.027609245998974,20.027615290999165,20.027628018999167,,,,,,,,,,,,,,,,,,,,,,,,,635511,001,2024-03-21_18h35.42.337,Test1,2023.2.3,121.04004774497146,2024-03-21 18h35.56.037505 -0300,
0,0,0,0,4,0,4,0,8,0,8,0,,,,,,,,,,,,,,,,,,,,,,,,,20.13052775399956,,,,,,,,,,,,,,,,,,,,,,,,,20.027769663000072,20.027790340998763,20.027796116999525,20.02780832299868,,,,,,,,,,,,,,,,,,,,,,,,,635511,001,2024-03-21_18h35.42.337,Test1,2023.2.3,121.04004774497146,2024-03-21 18h35.56.037505 -0300,
0,0,0,0,4,0,4,0,9,0,9,0,,,,,,,,,,,,,,,,,,,,,,,,,20.13052775399956,,,,,,,,,,,,,,,,,,,,,,,,,20.027941984999416,20.02796306699929,20.02796901599868,20.027981323999484,,,,,,,,,,,,,,,,,,,,,,,,,635511,001,2024-03-21_18h35.42.337,Test1,2023.2.3,121.04004774497146,2024-03-21 18h35.56.037505 -0300,
0,0,0,0,4,0,4,0,,,,,,,,,,,,,,,,,,,,,,,,,,,,,,,,,,,,,,,,,,,,,,,,,,,,,,,,,,,,,,,,,,,,,,,,,,,,,,,,,,635511,001,2024-03-21_18h35.42.337,Test1,2023.2.3,121.04004774497146,2024-03-21 18h35.56.037505 -0300,
0,0,0,0,5,0,5,0,0,0,0,0,,,,,,,,,,,,,,,,,,,,,,,,,20.13052775399956,,,,,,,,,,,,,,,,,,,,,,,,,20.028656056998443,20.028682397998637,20.02868913399834,20.028703267998935,,,,,,,,,,,,,,,,,,,,,,,,,635511,001,2024-03-21_18h35.42.337,Test1,2023.2.3,121.04004774497146,2024-03-21 18h35.56.037505 -0300,
0,0,0,0,5,0,5,0,1,0,1,0,,,,,,,,,,,,,,,,,,,,,,,,,20.13052775399956,,,,,,,,,,,,,,,,,,,,,,,,,20.028850611999587,20.028873531999125,20.02887958499923,20.02889255699847,,,,,,,,,,,,,,,,,,,,,,,,,635511,001,2024-03-21_18h35.42.337,Test1,2023.2.3,121.04004774497146,2024-03-21 18h35.56.037505 -0300,
0,0,0,0,5,0,5,0,2,0,2,0,,,,,,,,,,,,,,,,,,,,,,,,,20.13052775399956,,,,,,,,,,,,,,,,,,,,,,,,,20.029029474999334,20.029051469999104,20.0290574619994,20.029069869999148,,,,,,,,,,,,,,,,,,,,,,,,,635511,001,2024-03-21_18h35.42.337,Test1,2023.2.3,121.04004774497146,2024-03-21 18h35.56.037505 -0300,
0,0,0,0,5,0,5,0,3,0,3,0,,,,,,,,,,,,,,,,,,,,,,,,,20.13052775399956,,,,,,,,,,,,,,,,,,,,,,,,,20.029210654000053,20.02923172299961,20.029237806998935,20.02925018699898,,,,,,,,,,,,,,,,,,,,,,,,,635511,001,2024-03-21_18h35.42.337,Test1,2023.2.3,121.04004774497146,2024-03-21 18h35.56.037505 -0300,
0,0,0,0,5,0,5,0,4,0,4,0,,,,,,,,,,,,,,,,,,,,,,,,,20.13052775399956,,,,,,,,,,,,,,,,,,,,,,,,,20.029386163998424,20.029406746998575,20.029412538999168,20.029460029998518,,,,,,,,,,,,,,,,,,,,,,,,,635511,001,2024-03-21_18h35.42.337,Test1,2023.2.3,121.04004774497146,2024-03-21 18h35.56.037505 -0300,
0,0,0,0,5,0,5,0,5,0,5,0,,,,,,,,,,,,,,,,,,,,,,,,,20.13052775399956,,,,,,,,,,,,,,,,,,,,,,,,,20.029601709999042,20.02962281500004,20.029628702999617,20.029641456998434,,,,,,,,,,,,,,,,,,,,,,,,,635511,001,2024-03-21_18h35.42.337,Test1,2023.2.3,121.04004774497146,2024-03-21 18h35.56.037505 -0300,
0,0,0,0,5,0,5,0,6,0,6,0,,,,,,,,,,,,,,,,,,,,,,,,,20.13052775399956,,,,,,,,,,,,,,,,,,,,,,,,,20.029780453000058,20.02980106999894,20.029807057999278,20.029819203999068,,,,,,,,,,,,,,,,,,,,,,,,,635511,001,2024-03-21_18h35.42.337,Test1,2023.2.3,121.04004774497146,2024-03-21 18h35.56.037505 -0300,
0,0,0,0,5,0,5,0,7,0,7,0,,,,,,,,,,,,,,,,,,,,,,,,,20.13052775399956,,,,,,,,,,,,,,,,,,,,,,,,,20.029952603999845,20.02997497099932,20.02998100199875,20.029993241998454,,,,,,,,,,,,,,,,,,,,,,,,,635511,001,2024-03-21_18h35.42.337,Test1,2023.2.3,121.04004774497146,2024-03-21 18h35.56.037505 -0300,
0,0,0,0,5,0,5,0,8,0,8,0,,,,,,,,,,,,,,,,,,,,,,,,,20.13052775399956,,,,,,,,,,,,,,,,,,,,,,,,,20.030140981998557,20.030162045999532,20.030168095998306,20.030180409999957,,,,,,,,,,,,,,,,,,,,,,,,,635511,001,2024-03-21_18h35.42.337,Test1,2023.2.3,121.04004774497146,2024-03-21 18h35.56.037505 -0300,
0,0,0,0,5,0,5,0,9,0,9,0,,,,,,,,,,,,,,,,,,,,,,,,,20.13052775399956,,,,,,,,,,,,,,,,,,,,,,,,,20.030321221998747,20.030342046999067,20.030348025999047,20.030360311999175,,,,,,,,,,,,,,,,,,,,,,,,,635511,001,2024-03-21_18h35.42.337,Test1,2023.2.3,121.04004774497146,2024-03-21 18h35.56.037505 -0300,
0,0,0,0,5,0,5,0,,,,,,,,,,,,,,,,,,,,,,,,,,,,,,,,,,,,,,,,,,,,,,,,,,,,,,,,,,,,,,,,,,,,,,,,,,,,,,,,,,635511,001,2024-03-21_18h35.42.337,Test1,2023.2.3,121.04004774497146,2024-03-21 18h35.56.037505 -0300,
0,0,0,0,6,0,6,0,0,0,0,0,,,,,,,,,,,,,,,,,,,,,,,,,20.13052775399956,,,,,,,,,,,,,,,,,,,,,,,,,20.03084237799885,20.030867260999003,20.030873736999638,20.03088683399983,,,,,,,,,,,,,,,,,,,,,,,,,635511,001,2024-03-21_18h35.42.337,Test1,2023.2.3,121.04004774497146,2024-03-21 18h35.56.037505 -0300,
0,0,0,0,6,0,6,0,1,0,1,0,,,,,,,,,,,,,,,,,,,,,,,,,20.13052775399956,,,,,,,,,,,,,,,,,,,,,,,,,20.03103346199896,20.031055423998623,20.031061593999766,20.031074122000064,,,,,,,,,,,,,,,,,,,,,,,,,635511,001,2024-03-21_18h35.42.337,Test1,2023.2.3,121.04004774497146,2024-03-21 18h35.56.037505 -0300,
0,0,0,0,6,0,6,0,2,0,2,0,,,,,,,,,,,,,,,,,,,,,,,,,20.13052775399956,,,,,,,,,,,,,,,,,,,,,,,,,20.031215013999827,20.03123616799894,20.031242188999386,20.03125436999835,,,,,,,,,,,,,,,,,,,,,,,,,635511,001,2024-03-21_18h35.42.337,Test1,2023.2.3,121.04004774497146,2024-03-21 18h35.56.037505 -0300,
0,0,0,0,6,0,6,0,3,0,3,0,,,,,,,,,,,,,,,,,,,,,,,,,20.13052775399956,,,,,,,,,,,,,,,,,,,,,,,,,20.03139488099987,20.03141603399854,20.031422050999026,20.03143424099835,,,,,,,,,,,,,,,,,,,,,,,,,635511,001,2024-03-21_18h35.42.337,Test1,2023.2.3,121.04004774497146,2024-03-21 18h35.56.037505 -0300,
0,0,0,0,6,0,6,0,4,0,4,0,,,,,,,,,,,,,,,,,,,,,,,,,20.13052775399956,,,,,,,,,,,,,,,,,,,,,,,,,20.031568948999848,20.03158977699968,20.031595736998497,20.031607981998604,,,,,,,,,,,,,,,,,,,,,,,,,635511,001,2024-03-21_18h35.42.337,Test1,2023.2.3,121.04004774497146,2024-03-21 18h35.56.037505 -0300,
0,0,0,0,6,0,6,0,5,0,5,0,,,,,,,,,,,,,,,,,,,,,,,,,20.13052775399956,,,,,,,,,,,,,,,,,,,,,,,,,20.031750067999383,20.031770723999216,20.031776677999005,20.031788753,,,,,,,,,,,,,,,,,,,,,,,,,635511,001,2024-03-21_18h35.42.337,Test1,2023.2.3,121.04004774497146,2024-03-21 18h35.56.037505 -0300,
0,0,0,0,6,0,6,0,6,0,6,0,,,,,,,,,,,,,,,,,,,,,,,,,20.13052775399956,,,,,,,,,,,,,,,,,,,,,,,,,20.031923547998304,20.031943884998327,20.03194979499858,20.031962309998562,,,,,,,,,,,,,,,,,,,,,,,,,635511,001,2024-03-21_18h35.42.337,Test1,2023.2.3,121.04004774497146,2024-03-21 18h35.56.037505 -0300,
0,0,0,0,6,0,6,0,7,0,7,0,,,,,,,,,,,,,,,,,,,,,,,,,20.13052775399956,,,,,,,,,,,,,,,,,,,,,,,,,20.03209629199955,20.03211684999951,20.032122675998835,20.03213477099962,,,,,,,,,,,,,,,,,,,,,,,,,635511,001,2024-03-21_18h35.42.337,Test1,2023.2.3,121.04004774497146,2024-03-21 18h35.56.037505 -0300,
0,0,0,0,6,0,6,0,8,0,8,0,,,,,,,,,,,,,,,,,,,,,,,,,20.13052775399956,,,,,,,,,,,,,,,,,,,,,,,,,20.032279399998515,20.032300152999596,20.032306002998666,20.032318349998604,,,,,,,,,,,,,,,,,,,,,,,,,635511,001,2024-03-21_18h35.42.337,Test1,2023.2.3,121.04004774497146,2024-03-21 18h35.56.037505 -0300,
0,0,0,0,6,0,6,0,9,0,9,0,,,,,,,,,,,,,,,,,,,,,,,,,20.13052775399956,,,,,,,,,,,,,,,,,,,,,,,,,20.03245803899881,20.032479258999956,20.032485341998836,20.032497827000043,,,,,,,,,,,,,,,,,,,,,,,,,635511,001,2024-03-21_18h35.42.337,Test1,2023.2.3,121.04004774497146,2024-03-21 18h35.56.037505 -0300,
0,0,0,0,6,0,6,0,,,,,,,,,,,,,,,,,,,,,,,,,,,,,,,,,,,,,,,,,,,,,,,,,,,,,,,,,,,,,,,,,,,,,,,,,,,,,,,,,,635511,001,2024-03-21_18h35.42.337,Test1,2023.2.3,121.04004774497146,2024-03-21 18h35.56.037505 -0300,
0,0,0,0,7,0,7,0,0,0,0,0,,,,,,,,,,,,,,,,,,,,,,,,,20.13052775399956,,,,,,,,,,,,,,,,,,,,,,,,,20.033017850999386,20.033042361999833,20.033048727998903,20.033061673999327,,,,,,,,,,,,,,,,,,,,,,,,,635511,001,2024-03-21_18h35.42.337,Test1,2023.2.3,121.04004774497146,2024-03-21 18h35.56.037505 -0300,
0,0,0,0,7,0,7,0,1,0,1,0,,,,,,,,,,,,,,,,,,,,,,,,,20.13052775399956,,,,,,,,,,,,,,,,,,,,,,,,,20.033205943998837,20.033227680998607,20.033233788999496,20.033246273998884,,,,,,,,,,,,,,,,,,,,,,,,,635511,001,2024-03-21_18h35.42.337,Test1,2023.2.3,121.04004774497146,2024-03-21 18h35.56.037505 -0300,
0,0,0,0,7,0,7,0,2,0,2,0,,,,,,,,,,,,,,,,,,,,,,,,,20.13052775399956,,,,,,,,,,,,,,,,,,,,,,,,,20.03338219699981,20.03340707299867,20.033413292998375,20.033425900999646,,,,,,,,,,,,,,,,,,,,,,,,,635511,001,2024-03-21_18h35.42.337,Test1,2023.2.3,121.04004774497146,2024-03-21 18h35.56.037505 -0300,
0,0,0,0,7,0,7,0,3,0,3,0,,,,,,,,,,,,,,,,,,,,,,,,,20.13052775399956,,,,,,,,,,,,,,,,,,,,,,,,,20.033565934998478,20.033586948999073,20.03359293199901,20.033605284999794,,,,,,,,,,,,,,,,,,,,,,,,,635511,001,2024-03-21_18h35.42.337,Test1,2023.2.3,121.04004774497146,2024-03-21 18h35.56.037505 -0300,
0,0,0,0,7,0,7,0,4,0,4,0,,,,,,,,,,,,,,,,,,,,,,,,,20.13052775399956,,,,,,,,,,,,,,,,,,,,,,,,,20.033744241000022,20.033765111998946,20.033771153999623,20.033783677999963,,,,,,,,,,,,,,,,,,,,,,,,,635511,001,2024-03-21_18h35.42.337,Test1,2023.2.3,121.04004774497146,2024-03-21 18h35.56.037505 -0300,
0,0,0,0,7,0,7,0,5,0,5,0,,,,,,,,,,,,,,,,,,,,,,,,,20.13052775399956,,,,,,,,,,,,,,,,,,,,,,,,,20.0339220249989,20.03394310799922,20.03394907099937,20.033961563000048,,,,,,,,,,,,,,,,,,,,,,,,,635511,001,2024-03-21_18h35.42.337,Test1,2023.2.3,121.04004774497146,2024-03-21 18h35.56.037505 -0300,
0,0,0,0,7,0,7,0,6,0,6,0,,,,,,,,,,,,,,,,,,,,,,,,,20.13052775399956,,,,,,,,,,,,,,,,,,,,,,,,,20.03409441599979,20.034114847998353,20.034120839000025,20.034132970999053,,,,,,,,,,,,,,,,,,,,,,,,,635511,001,2024-03-21_18h35.42.337,Test1,2023.2.3,121.04004774497146,2024-03-21 18h35.56.037505 -0300,
0,0,0,0,7,0,7,0,7,0,7,0,,,,,,,,,,,,,,,,,,,,,,,,,20.13052775399956,,,,,,,,,,,,,,,,,,,,,,,,,20.03427456999998,20.034296534999157,20.03430259199922,20.034315143999265,,,,,,,,,,,,,,,,,,,,,,,,,635511,001,2024-03-21_18h35.42.337,Test1,2023.2.3,121.04004774497146,2024-03-21 18h35.56.037505 -0300,
0,0,0,0,7,0,7,0,8,0,8,0,,,,,,,,,,,,,,,,,,,,,,,,,20.13052775399956,,,,,,,,,,,,,,,,,,,,,,,,,20.034451255998647,20.03447195699846,20.034477886998502,20.034490160998757,,,,,,,,,,,,,,,,,,,,,,,,,635511,001,2024-03-21_18h35.42.337,Test1,2023.2.3,121.04004774497146,2024-03-21 18h35.56.037505 -0300,
0,0,0,0,7,0,7,0,9,0,9,0,,,,,,,,,,,,,,,,,,,,,,,,,20.13052775399956,,,,,,,,,,,,,,,,,,,,,,,,,20.034627056998943,20.03464759599956,20.034653535998586,20.03466544799994,,,,,,,,,,,,,,,,,,,,,,,,,635511,001,2024-03-21_18h35.42.337,Test1,2023.2.3,121.04004774497146,2024-03-21 18h35.56.037505 -0300,
0,0,0,0,7,0,7,0,,,,,,,,,,,,,,,,,,,,,,,,,,,,,,,,,,,,,,,,,,,,,,,,,,,,,,,,,,,,,,,,,,,,,,,,,,,,,,,,,,635511,001,2024-03-21_18h35.42.337,Test1,2023.2.3,121.04004774497146,2024-03-21 18h35.56.037505 -0300,
0,0,0,0,8,0,8,0,0,0,0,0,,,,,,,,,,,,,,,,,,,,,,,,,20.13052775399956,,,,,,,,,,,,,,,,,,,,,,,,,20.035141151998687,20.035166047999155,20.035172497999156,20.035185786999136,,,,,,,,,,,,,,,,,,,,,,,,,635511,001,2024-03-21_18h35.42.337,Test1,2023.2.3,121.04004774497146,2024-03-21 18h35.56.037505 -0300,
0,0,0,0,8,0,8,0,1,0,1,0,,,,,,,,,,,,,,,,,,,,,,,,,20.13052775399956,,,,,,,,,,,,,,,,,,,,,,,,,20.035332050998477,20.035353977998966,20.035360194999157,20.03537262499958,,,,,,,,,,,,,,,,,,,,,,,,,635511,001,2024-03-21_18h35.42.337,Test1,2023.2.3,121.04004774497146,2024-03-21 18h35.56.037505 -0300,
0,0,0,0,8,0,8,0,2,0,2,0,,,,,,,,,,,,,,,,,,,,,,,,,20.13052775399956,,,,,,,,,,,,,,,,,,,,,,,,,20.035513071999958,20.035534721999284,20.035540856999432,20.03555313600009,,,,,,,,,,,,,,,,,,,,,,,,,635511,001,2024-03-21_18h35.42.337,Test1,2023.2.3,121.04004774497146,2024-03-21 18h35.56.037505 -0300,
0,0,0,0,8,0,8,0,3,0,3,0,,,,,,,,,,,,,,,,,,,,,,,,,20.13052775399956,,,,,,,,,,,,,,,,,,,,,,,,,20.03569467899979,20.035716174999834,20.035740629999054,20.035753656999077,,,,,,,,,,,,,,,,,,,,,,,,,635511,001,2024-03-21_18h35.42.337,Test1,2023.2.3,121.04004774497146,2024-03-21 18h35.56.037505 -0300,
0,0,0,0,8,0,8,0,4,0,4,0,,,,,,,,,,,,,,,,,,,,,,,,,20.13052775399956,,,,,,,,,,,,,,,,,,,,,,,,,20.035912486999223,20.03593394299969,20.03593994199946,20.035952261998318,,,,,,,,,,,,,,,,,,,,,,,,,635511,001,2024-03-21_18h35.42.337,Test1,2023.2.3,121.04004774497146,2024-03-21 18h35.56.037505 -0300,
0,0,0,0,8,0,8,0,5,0,5,0,,,,,,,,,,,,,,,,,,,,,,,,,20.13052775399956,,,,,,,,,,,,,,,,,,,,,,,,,20.03609132299971,20.036113065998506,20.036119136999332,20.036131575998297,,,,,,,,,,,,,,,,,,,,,,,,,635511,001,2024-03-21_18h35.42.337,Test1,2023.2.3,121.04004774497146,2024-03-21 18h35.56.037505 -0300,
0,0,0,0,8,0,8,0,6,0,6,0,,,,,,,,,,,,,,,,,,,,,,,,,20.13052775399956,,,,,,,,,,,,,,,,,,,,,,,,,20.03627248399971,20.036293441999078,20.036299388999396,20.036311790998298,,,,,,,,,,,,,,,,,,,,,,,,,635511,001,2024-03-21_18h35.42.337,Test1,2023.2.3,121.04004774497146,2024-03-21 18h35.56.037505 -0300,
0,0,0,0,8,0,8,0,7,0,7,0,,,,,,,,,,,,,,,,,,,,,,,,,20.13052775399956,,,,,,,,,,,,,,,,,,,,,,,,,20.03644514000007,20.036465479999606,20.03647141500005,20.036510270998406,,,,,,,,,,,,,,,,,,,,,,,,,635511,001,2024-03-21_18h35.42.337,Test1,2023.2.3,121.04004774497146,2024-03-21 18h35.56.037505 -0300,
0,0,0,0,8,0,8,0,8,0,8,0,,,,,,,,,,,,,,,,,,,,,,,,,20.13052775399956,,,,,,,,,,,,,,,,,,,,,,,,,20.036667232998298,20.036688722999315,20.03669460599849,20.03670882299957,,,,,,,,,,,,,,,,,,,,,,,,,635511,001,2024-03-21_18h35.42.337,Test1,2023.2.3,121.04004774497146,2024-03-21 18h35.56.037505 -0300,
0,0,0,0,8,0,8,0,9,0,9,0,,,,,,,,,,,,,,,,,,,,,,,,,20.13052775399956,,,,,,,,,,,,,,,,,,,,,,,,,20.036851558999842,20.0368725419994,20.036878491999232,20.036890495999614,,,,,,,,,,,,,,,,,,,,,,,,,635511,001,2024-03-21_18h35.42.337,Test1,2023.2.3,121.04004774497146,2024-03-21 18h35.56.037505 -0300,
0,0,0,0,8,0,8,0,,,,,,,,,,,,,,,,,,,,,,,,,,,,,,,,,,,,,,,,,,,,,,,,,,,,,,,,,,,,,,,,,,,,,,,,,,,,,,,,,,635511,001,2024-03-21_18h35.42.337,Test1,2023.2.3,121.04004774497146,2024-03-21 18h35.56.037505 -0300,
0,0,0,0,9,0,9,0,0,0,0,0,,,,,,,,,,,,,,,,,,,,,,,,,20.13052775399956,,,,,,,,,,,,,,,,,,,,,,,,,20.03735644399967,20.037381085998277,20.037387591999504,20.03740077599832,,,,,,,,,,,,,,,,,,,,,,,,,635511,001,2024-03-21_18h35.42.337,Test1,2023.2.3,121.04004774497146,2024-03-21 18h35.56.037505 -0300,
0,0,0,0,9,0,9,0,1,0,1,0,,,,,,,,,,,,,,,,,,,,,,,,,20.13052775399956,,,,,,,,,,,,,,,,,,,,,,,,,20.037544376998994,20.037566842998785,20.03757299699828,20.037585614998534,,,,,,,,,,,,,,,,,,,,,,,,,635511,001,2024-03-21_18h35.42.337,Test1,2023.2.3,121.04004774497146,2024-03-21 18h35.56.037505 -0300,
0,0,0,0,9,0,9,0,2,0,2,0,,,,,,,,,,,,,,,,,,,,,,,,,20.13052775399956,,,,,,,,,,,,,,,,,,,,,,,,,20.037726146998466,20.03774760699889,20.037753616999908,20.037766225999803,,,,,,,,,,,,,,,,,,,,,,,,,635511,001,2024-03-21_18h35.42.337,Test1,2023.2.3,121.04004774497146,2024-03-21 18h35.56.037505 -0300,
0,0,0,0,9,0,9,0,3,0,3,0,,,,,,,,,,,,,,,,,,,,,,,,,20.13052775399956,,,,,,,,,,,,,,,,,,,,,,,,,20.0379061299991,20.037927924999167,20.03793392699845,20.037946538999677,,,,,,,,,,,,,,,,,,,,,,,,,635511,001,2024-03-21_18h35.42.337,Test1,2023.2.3,121.04004774497146,2024-03-21 18h35.56.037505 -0300,
0,0,0,0,9,0,9,0,4,0,4,0,,,,,,,,,,,,,,,,,,,,,,,,,20.13052775399956,,,,,,,,,,,,,,,,,,,,,,,,,20.038085000998763,20.038106337999125,20.0381122209983,20.038124501999846,,,,,,,,,,,,,,,,,,,,,,,,,635511,001,2024-03-21_18h35.42.337,Test1,2023.2.3,121.04004774497146,2024-03-21 18h35.56.037505 -0300,
0,0,0,0,9,0,9,0,5,0,5,0,,,,,,,,,,,,,,,,,,,,,,,,,20.13052775399956,,,,,,,,,,,,,,,,,,,,,,,,,20.038285902999633,20.03832313499879,20.038328971999363,20.038341151999703,,,,,,,,,,,,,,,,,,,,,,,,,635511,001,2024-03-21_18h35.42.337,Test1,2023.2.3,121.04004774497146,2024-03-21 18h35.56.037505 -0300,
0,0,0,0,9,0,9,0,6,0,6,0,,,,,,,,,,,,,,,,,,,,,,,,,20.13052775399956,,,,,,,,,,,,,,,,,,,,,,,,,20.03847553399828,20.038496731998748,20.038502696999785,20.038515003998327,,,,,,,,,,,,,,,,,,,,,,,,,635511,001,2024-03-21_18h35.42.337,Test1,2023.2.3,121.04004774497146,2024-03-21 18h35.56.037505 -0300,
0,0,0,0,9,0,9,0,7,0,7,0,,,,,,,,,,,,,,,,,,,,,,,,,20.13052775399956,,,,,,,,,,,,,,,,,,,,,,,,,20.038648208999803,20.038668683999276,20.038674573999742,20.03868686399983,,,,,,,,,,,,,,,,,,,,,,,,,635511,001,2024-03-21_18h35.42.337,Test1,2023.2.3,121.04004774497146,2024-03-21 18h35.56.037505 -0300,
0,0,0,0,9,0,9,0,8,0,8,0,,,,,,,,,,,,,,,,,,,,,,,,,20.13052775399956,,,,,,,,,,,,,,,,,,,,,,,,,20.038830385999972,20.038851498999065,20.038857489998918,20.03886974099987,,,,,,,,,,,,,,,,,,,,,,,,,635511,001,2024-03-21_18h35.42.337,Test1,2023.2.3,121.04004774497146,2024-03-21 18h35.56.037505 -0300,
0,0,0,0,9,0,9,0,9,0,9,0,,,,,,,,,,,,,,,,,,,,,,,,,20.13052775399956,,,,,,,,,,,,,,,,,,,,,,,,,20.039007453999147,20.03902810999898,20.03903395999987,20.03904614399835,,,,,,,,,,,,,,,,,,,,,,,,,635511,001,2024-03-21_18h35.42.337,Test1,2023.2.3,121.04004774497146,2024-03-21 18h35.56.037505 -0300,
0,0,0,0,9,0,9,0,,,,,,,,,,,,,,,,,,,,,,,,,,,,,,,,,,,,,,,,,,,,,,,,,,,,,,,,,,,,,,,,,,,,,,,,,,,,,,,,,,635511,001,2024-03-21_18h35.42.337,Test1,2023.2.3,121.04004774497146,2024-03-21 18h35.56.037505 -0300,
0,0,0,0,,,,,,,,,0,0,0,0,0,0,0,0,,,,,,,,,,,,,,,,,20.13052775399956,,,,,,,,,,,,,,,,,,,,,,,,,,,,,20.03974768199987,20.039790581999114,20.039798075998988,20.041658415999336,,,,,,,,,,,,,,,,,,,,,635511,001,2024-03-21_18h35.42.337,Test1,2023.2.3,121.04004774497146,2024-03-21 18h35.56.037505 -0300,
0,0,0,0,,,,,,,,,0,0,0,0,1,0,1,0,,,,,,,,,,,,,,,,,20.13052775399956,,,,,,,,,,,,,,,,,,,,,,,,,,,,,20.041827955999906,20.043002581998735,20.043010796998715,20.04303267599971,,,,,,,,,,,,,,,,,,,,,635511,001,2024-03-21_18h35.42.337,Test1,2023.2.3,121.04004774497146,2024-03-21 18h35.56.037505 -0300,
0,0,0,0,,,,,,,,,0,0,0,0,2,0,2,0,,,,,,,,,,,,,,,,,20.13052775399956,,,,,,,,,,,,,,,,,,,,,,,,,,,,,20.043196927999816,20.04323097699853,20.043237756999588,20.043254550999336,,,,,,,,,,,,,,,,,,,,,635511,001,2024-03-21_18h35.42.337,Test1,2023.2.3,121.04004774497146,2024-03-21 18h35.56.037505 -0300,
0,0,0,0,,,,,,,,,0,0,0,0,3,0,3,0,,,,,,,,,,,,,,,,,20.13052775399956,,,,,,,,,,,,,,,,,,,,,,,,,,,,,20.04339831499965,20.04342695199921,20.043433077998998,20.043449103999592,,,,,,,,,,,,,,,,,,,,,635511,001,2024-03-21_18h35.42.337,Test1,2023.2.3,121.04004774497146,2024-03-21 18h35.56.037505 -0300,
0,0,0,0,,,,,,,,,0,0,0,0,4,0,4,0,,,,,,,,,,,,,,,,,20.13052775399956,,,,,,,,,,,,,,,,,,,,,,,,,,,,,20.043587152998953,20.043615588998364,20.043621787999655,20.04363786199974,,,,,,,,,,,,,,,,,,,,,635511,001,2024-03-21_18h35.42.337,Test1,2023.2.3,121.04004774497146,2024-03-21 18h35.56.037505 -0300,
0,0,0,0,,,,,,,,,0,0,0,0,5,0,5,0,,,,,,,,,,,,,,,,,20.13052775399956,,,,,,,,,,,,,,,,,,,,,,,,,,,,,20.043781388998468,20.04381245299919,20.043818760999784,20.04383773599875,,,,,,,,,,,,,,,,,,,,,635511,001,2024-03-21_18h35.42.337,Test1,2023.2.3,121.04004774497146,2024-03-21 18h35.56.037505 -0300,
0,0,0,0,,,,,,,,,0,0,0,0,6,0,6,0,,,,,,,,,,,,,,,,,20.13052775399956,,,,,,,,,,,,,,,,,,,,,,,,,,,,,20.043974932999845,20.044002901999193,20.04400914100006,20.04402532599852,,,,,,,,,,,,,,,,,,,,,635511,001,2024-03-21_18h35.42.337,Test1,2023.2.3,121.04004774497146,2024-03-21 18h35.56.037505 -0300,
0,0,0,0,,,,,,,,,0,0,0,0,7,0,7,0,,,,,,,,,,,,,,,,,20.13052775399956,,,,,,,,,,,,,,,,,,,,,,,,,,,,,20.044163711998408,20.044193303998327,20.044199540998306,20.044215800999154,,,,,,,,,,,,,,,,,,,,,635511,001,2024-03-21_18h35.42.337,Test1,2023.2.3,121.04004774497146,2024-03-21 18h35.56.037505 -0300,
0,0,0,0,,,,,,,,,0,0,0,0,8,0,8,0,,,,,,,,,,,,,,,,,20.13052775399956,,,,,,,,,,,,,,,,,,,,,,,,,,,,,20.044533976999446,20.04456432400002,20.044570719999683,20.044587238999156,,,,,,,,,,,,,,,,,,,,,635511,001,2024-03-21_18h35.42.337,Test1,2023.2.3,121.04004774497146,2024-03-21 18h35.56.037505 -0300,
0,0,0,0,,,,,,,,,0,0,0,0,9,0,9,0,,,,,,,,,,,,,,,,,20.13052775399956,,,,,,,,,,,,,,,,,,,,,,,,,,,,,20.044735385999957,20.044764669999495,20.044770928998332,20.044787388998884,,,,,,,,,,,,,,,,,,,,,635511,001,2024-03-21_18h35.42.337,Test1,2023.2.3,121.04004774497146,2024-03-21 18h35.56.037505 -0300,
0,0,0,0,,,,,,,,,0,0,0,0,,,,,,,,,,,,,,,,,,,,,,,,,,,,,,,,,,,,,,,,,,,,,,,,,,,,,,,,,,,,,,,,,,,,,,,,,,635511,001,2024-03-21_18h35.42.337,Test1,2023.2.3,121.04004774497146,2024-03-21 18h35.56.037505 -0300,
0,0,0,0,,,,,,,,,1,0,1,0,0,0,0,0,,,,,,,,,,,,,,,,,20.13052775399956,,,,,,,,,,,,,,,,,,,,,,,,,,,,,20.045300294999834,20.04533304299912,20.045339656999204,20.04535696199855,,,,,,,,,,,,,,,,,,,,,635511,001,2024-03-21_18h35.42.337,Test1,2023.2.3,121.04004774497146,2024-03-21 18h35.56.037505 -0300,
0,0,0,0,,,,,,,,,1,0,1,0,1,0,1,0,,,,,,,,,,,,,,,,,20.13052775399956,,,,,,,,,,,,,,,,,,,,,,,,,,,,,20.045506186999773,20.04553512699931,20.045541551999122,20.04555812899889,,,,,,,,,,,,,,,,,,,,,635511,001,2024-03-21_18h35.42.337,Test1,2023.2.3,121.04004774497146,2024-03-21 18h35.56.037505 -0300,
0,0,0,0,,,,,,,,,1,0,1,0,2,0,2,0,,,,,,,,,,,,,,,,,20.13052775399956,,,,,,,,,,,,,,,,,,,,,,,,,,,,,20.04570105699895,20.045729242998277,20.04573563199847,20.045752508000078,,,,,,,,,,,,,,,,,,,,,635511,001,2024-03-21_18h35.42.337,Test1,2023.2.3,121.04004774497146,2024-03-21 18h35.56.037505 -0300,
0,0,0,0,,,,,,,,,1,0,1,0,3,0,3,0,,,,,,,,,,,,,,,,,20.13052775399956,,,,,,,,,,,,,,,,,,,,,,,,,,,,,20.04589462900003,20.04592287199921,20.045929089999845,20.04594560699843,,,,,,,,,,,,,,,,,,,,,635511,001,2024-03-21_18h35.42.337,Test1,2023.2.3,121.04004774497146,2024-03-21 18h35.56.037505 -0300,
0,0,0,0,,,,,,,,,1,0,1,0,4,0,4,0,,,,,,,,,,,,,,,,,20.13052775399956,,,,,,,,,,,,,,,,,,,,,,,,,,,,,20.046089681998637,20.046117976999085,20.046124251999572,20.04614056599894,,,,,,,,,,,,,,,,,,,,,635511,001,2024-03-21_18h35.42.337,Test1,2023.2.3,121.04004774497146,2024-03-21 18h35.56.037505 -0300,
0,0,0,0,,,,,,,,,1,0,1,0,5,0,5,0,,,,,,,,,,,,,,,,,20.13052775399956,,,,,,,,,,,,,,,,,,,,,,,,,,,,,20.04628266399959,20.046312021999256,20.046318393999172,20.046335050999915,,,,,,,,,,,,,,,,,,,,,635511,001,2024-03-21_18h35.42.337,Test1,2023.2.3,121.04004774497146,2024-03-21 18h35.56.037505 -0300,
0,0,0,0,,,,,,,,,1,0,1,0,6,0,6,0,,,,,,,,,,,,,,,,,20.13052775399956,,,,,,,,,,,,,,,,,,,,,,,,,,,,,20.046476640998662,20.04652612099926,20.046548611999242,20.046565383998313,,,,,,,,,,,,,,,,,,,,,635511,001,2024-03-21_18h35.42.337,Test1,2023.2.3,121.04004774497146,2024-03-21 18h35.56.037505 -0300,
0,0,0,0,,,,,,,,,1,0,1,0,7,0,7,0,,,,,,,,,,,,,,,,,20.13052775399956,,,,,,,,,,,,,,,,,,,,,,,,,,,,,20.046708152000065,20.046736356998736,20.046742360998905,20.046758616999796,,,,,,,,,,,,,,,,,,,,,635511,001,2024-03-21_18h35.42.337,Test1,2023.2.3,121.04004774497146,2024-03-21 18h35.56.037505 -0300,
0,0,0,0,,,,,,,,,1,0,1,0,8,0,8,0,,,,,,,,,,,,,,,,,20.13052775399956,,,,,,,,,,,,,,,,,,,,,,,,,,,,,20.046968056998594,20.046995884998978,20.047002032999444,20.04701810699953,,,,,,,,,,,,,,,,,,,,,635511,001,2024-03-21_18h35.42.337,Test1,2023.2.3,121.04004774497146,2024-03-21 18h35.56.037505 -0300,
0,0,0,0,,,,,,,,,1,0,1,0,9,0,9,0,,,,,,,,,,,,,,,,,20.13052775399956,,,,,,,,,,,,,,,,,,,,,,,,,,,,,20.047152741999525,20.04721891400004,20.04722533599852,20.047241543999917,,,,,,,,,,,,,,,,,,,,,635511,001,2024-03-21_18h35.42.337,Test1,2023.2.3,121.04004774497146,2024-03-21 18h35.56.037505 -0300,
0,0,0,0,,,,,,,,,1,0,1,0,,,,,,,,,,,,,,,,,,,,,,,,,,,,,,,,,,,,,,,,,,,,,,,,,,,,,,,,,,,,,,,,,,,,,,,,,,635511,001,2024-03-21_18h35.42.337,Test1,2023.2.3,121.04004774497146,2024-03-21 18h35.56.037505 -0300,
0,0,0,0,,,,,,,,,2,0,2,0,0,0,0,0,,,,,,,,,,,,,,,,,20.13052775399956,,,,,,,,,,,,,,,,,,,,,,,,,,,,,20.047741468999448,20.0477740919996,20.047781036999368,20.047798380999666,,,,,,,,,,,,,,,,,,,,,635511,001,2024-03-21_18h35.42.337,Test1,2023.2.3,121.04004774497146,2024-03-21 18h35.56.037505 -0300,
0,0,0,0,,,,,,,,,2,0,2,0,1,0,1,0,,,,,,,,,,,,,,,,,20.13052775399956,,,,,,,,,,,,,,,,,,,,,,,,,,,,,20.04794473599941,20.047973539998566,20.047979831999328,20.04799672199988,,,,,,,,,,,,,,,,,,,,,635511,001,2024-03-21_18h35.42.337,Test1,2023.2.3,121.04004774497146,2024-03-21 18h35.56.037505 -0300,
0,0,0,0,,,,,,,,,2,0,2,0,2,0,2,0,,,,,,,,,,,,,,,,,20.13052775399956,,,,,,,,,,,,,,,,,,,,,,,,,,,,,20.048135009999896,20.048163259998546,20.04816950299937,20.048185948999162,,,,,,,,,,,,,,,,,,,,,635511,001,2024-03-21_18h35.42.337,Test1,2023.2.3,121.04004774497146,2024-03-21 18h35.56.037505 -0300,
0,0,0,0,,,,,,,,,2,0,2,0,3,0,3,0,,,,,,,,,,,,,,,,,20.13052775399956,,,,,,,,,,,,,,,,,,,,,,,,,,,,,20.048330793999412,20.048359632999563,20.048365806998845,20.04838250299872,,,,,,,,,,,,,,,,,,,,,635511,001,2024-03-21_18h35.42.337,Test1,2023.2.3,121.04004774497146,2024-03-21 18h35.56.037505 -0300,
0,0,0,0,,,,,,,,,2,0,2,0,4,0,4,0,,,,,,,,,,,,,,,,,20.13052775399956,,,,,,,,,,,,,,,,,,,,,,,,,,,,,20.048526946999118,20.048554654998952,20.048560756998995,20.04857706599978,,,,,,,,,,,,,,,,,,,,,635511,001,2024-03-21_18h35.42.337,Test1,2023.2.3,121.04004774497146,2024-03-21 18h35.56.037505 -0300,
0,0,0,0,,,,,,,,,2,0,2,0,5,0,5,0,,,,,,,,,,,,,,,,,20.13052775399956,,,,,,,,,,,,,,,,,,,,,,,,,,,,,20.048711972998717,20.048741055999926,20.048747305998404,20.048763158998554,,,,,,,,,,,,,,,,,,,,,635511,001,2024-03-21_18h35.42.337,Test1,2023.2.3,121.04004774497146,2024-03-21 18h35.56.037505 -0300,
0,0,0,0,,,,,,,,,2,0,2,0,6,0,6,0,,,,,,,,,,,,,,,,,20.13052775399956,,,,,,,,,,,,,,,,,,,,,,,,,,,,,20.048905967998508,20.048933647000013,20.048939831998723,20.048955848998958,,,,,,,,,,,,,,,,,,,,,635511,001,2024-03-21_18h35.42.337,Test1,2023.2.3,121.04004774497146,2024-03-21 18h35.56.037505 -0300,
0,0,0,0,,,,,,,,,2,0,2,0,7,0,7,0,,,,,,,,,,,,,,,,,20.13052775399956,,,,,,,,,,,,,,,,,,,,,,,,,,,,,20.049094048999905,20.049121811998702,20.049127915999634,20.049143933998494,,,,,,,,,,,,,,,,,,,,,635511,001,2024-03-21_18h35.42.337,Test1,2023.2.3,121.04004774497146,2024-03-21 18h35.56.037505 -0300,
0,0,0,0,,,,,,,,,2,0,2,0,8,0,8,0,,,,,,,,,,,,,,,,,20.13052775399956,,,,,,,,,,,,,,,,,,,,,,,,,,,,,20.049279457998637,20.049310277998302,20.049316642998747,20.04933306699968,,,,,,,,,,,,,,,,,,,,,635511,001,2024-03-21_18h35.42.337,Test1,2023.2.3,121.04004774497146,2024-03-21 18h35.56.037505 -0300,
0,0,0,0,,,,,,,,,2,0,2,0,9,0,9,0,,,,,,,,,,,,,,,,,20.13052775399956,,,,,,,,,,,,,,,,,,,,,,,,,,,,,20.049475097999675,20.049502992998896,20.049509220998516,20.049525157999597,,,,,,,,,,,,,,,,,,,,,635511,001,2024-03-21_18h35.42.337,Test1,2023.2.3,121.04004774497146,2024-03-21 18h35.56.037505 -0300,
0,0,0,0,,,,,,,,,2,0,2,0,,,,,,,,,,,,,,,,,,,,,,,,,,,,,,,,,,,,,,,,,,,,,,,,,,,,,,,,,,,,,,,,,,,,,,,,,,635511,001,2024-03-21_18h35.42.337,Test1,2023.2.3,121.04004774497146,2024-03-21 18h35.56.037505 -0300,
0,0,0,0,,,,,,,,,3,0,3,0,0,0,0,0,,,,,,,,,,,,,,,,,20.13052775399956,,,,,,,,,,,,,,,,,,,,,,,,,,,,,20.050007069999992,20.050039572999594,20.050046345999363,20.05006372799835,,,,,,,,,,,,,,,,,,,,,635511,001,2024-03-21_18h35.42.337,Test1,2023.2.3,121.04004774497146,2024-03-21 18h35.56.037505 -0300,
0,0,0,0,,,,,,,,,3,0,3,0,1,0,1,0,,,,,,,,,,,,,,,,,20.13052775399956,,,,,,,,,,,,,,,,,,,,,,,,,,,,,20.050205536999783,20.050247907000085,20.050254566998774,20.050274280998565,,,,,,,,,,,,,,,,,,,,,635511,001,2024-03-21_18h35.42.337,Test1,2023.2.3,121.04004774497146,2024-03-21 18h35.56.037505 -0300,
0,0,0,0,,,,,,,,,3,0,3,0,2,0,2,0,,,,,,,,,,,,,,,,,20.13052775399956,,,,,,,,,,,,,,,,,,,,,,,,,,,,,20.05041612199966,20.050444931999664,20.05045136999979,20.050467711998863,,,,,,,,,,,,,,,,,,,,,635511,001,2024-03-21_18h35.42.337,Test1,2023.2.3,121.04004774497146,2024-03-21 18h35.56.037505 -0300,
0,0,0,0,,,,,,,,,3,0,3,0,3,0,3,0,,,,,,,,,,,,,,,,,20.13052775399956,,,,,,,,,,,,,,,,,,,,,,,,,,,,,20.050603036999746,20.050631635998798,20.050637777998418,20.050654340999245,,,,,,,,,,,,,,,,,,,,,635511,001,2024-03-21_18h35.42.337,Test1,2023.2.3,121.04004774497146,2024-03-21 18h35.56.037505 -0300,
0,0,0,0,,,,,,,,,3,0,3,0,4,0,4,0,,,,,,,,,,,,,,,,,20.13052775399956,,,,,,,,,,,,,,,,,,,,,,,,,,,,,20.05079001299964,20.050821011998778,20.050827453998863,20.05084946599891,,,,,,,,,,,,,,,,,,,,,635511,001,2024-03-21_18h35.42.337,Test1,2023.2.3,121.04004774497146,2024-03-21 18h35.56.037505 -0300,
0,0,0,0,,,,,,,,,3,0,3,0,5,0,5,0,,,,,,,,,,,,,,,,,20.13052775399956,,,,,,,,,,,,,,,,,,,,,,,,,,,,,20.050984259998586,20.051016350998907,20.051022698999077,20.051041026999883,,,,,,,,,,,,,,,,,,,,,635511,001,2024-03-21_18h35.42.337,Test1,2023.2.3,121.04004774497146,2024-03-21 18h35.56.037505 -0300,
0,0,0,0,,,,,,,,,3,0,3,0,6,0,6,0,,,,,,,,,,,,,,,,,20.13052775399956,,,,,,,,,,,,,,,,,,,,,,,,,,,,,20.051176035000026,20.051204096998845,20.05121027199857,20.051252142999147,,,,,,,,,,,,,,,,,,,,,635511,001,2024-03-21_18h35.42.337,Test1,2023.2.3,121.04004774497146,2024-03-21 18h35.56.037505 -0300,
0,0,0,0,,,,,,,,,3,0,3,0,7,0,7,0,,,,,,,,,,,,,,,,,20.13052775399956,,,,,,,,,,,,,,,,,,,,,,,,,,,,,20.05138898899895,20.0514166189987,20.051426183999865,20.0514458259986,,,,,,,,,,,,,,,,,,,,,635511,001,2024-03-21_18h35.42.337,Test1,2023.2.3,121.04004774497146,2024-03-21 18h35.56.037505 -0300,
0,0,0,0,,,,,,,,,3,0,3,0,8,0,8,0,,,,,,,,,,,,,,,,,20.13052775399956,,,,,,,,,,,,,,,,,,,,,,,,,,,,,20.0515874419998,20.051615961998323,20.051622144999783,20.051638490998812,,,,,,,,,,,,,,,,,,,,,635511,001,2024-03-21_18h35.42.337,Test1,2023.2.3,121.04004774497146,2024-03-21 18h35.56.037505 -0300,
0,0,0,0,,,,,,,,,3,0,3,0,9,0,9,0,,,,,,,,,,,,,,,,,20.13052775399956,,,,,,,,,,,,,,,,,,,,,,,,,,,,,20.051773227998638,20.051801214998704,20.051807361998726,20.05182363699896,,,,,,,,,,,,,,,,,,,,,635511,001,2024-03-21_18h35.42.337,Test1,2023.2.3,121.04004774497146,2024-03-21 18h35.56.037505 -0300,
0,0,0,0,,,,,,,,,3,0,3,0,,,,,,,,,,,,,,,,,,,,,,,,,,,,,,,,,,,,,,,,,,,,,,,,,,,,,,,,,,,,,,,,,,,,,,,,,,635511,001,2024-03-21_18h35.42.337,Test1,2023.2.3,121.04004774497146,2024-03-21 18h35.56.037505 -0300,
0,0,0,0,,,,,,,,,4,0,4,0,0,0,0,0,,,,,,,,,,,,,,,,,20.13052775399956,,,,,,,,,,,,,,,,,,,,,,,,,,,,,20.052306994999526,20.052343497000038,20.052350431999002,20.052367862999745,,,,,,,,,,,,,,,,,,,,,635511,001,2024-03-21_18h35.42.337,Test1,2023.2.3,121.04004774497146,2024-03-21 18h35.56.037505 -0300,
0,0,0,0,,,,,,,,,4,0,4,0,1,0,1,0,,,,,,,,,,,,,,,,,20.13052775399956,,,,,,,,,,,,,,,,,,,,,,,,,,,,,20.052508670998577,20.05254074899858,20.052547142999174,20.052563703999112,,,,,,,,,,,,,,,,,,,,,635511,001,2024-03-21_18h35.42.337,Test1,2023.2.3,121.04004774497146,2024-03-21 18h35.56.037505 -0300,
0,0,0,0,,,,,,,,,4,0,4,0,2,0,2,0,,,,,,,,,,,,,,,,,20.13052775399956,,,,,,,,,,,,,,,,,,,,,,,,,,,,,20.052706431999468,20.05273479599964,20.05274103499869,20.05275777299903,,,,,,,,,,,,,,,,,,,,,635511,001,2024-03-21_18h35.42.337,Test1,2023.2.3,121.04004774497146,2024-03-21 18h35.56.037505 -0300,
0,0,0,0,,,,,,,,,4,0,4,0,3,0,3,0,,,,,,,,,,,,,,,,,20.13052775399956,,,,,,,,,,,,,,,,,,,,,,,,,,,,,20.05289830699985,20.052926757998648,20.052932975999283,20.052955328999815,,,,,,,,,,,,,,,,,,,,,635511,001,2024-03-21_18h35.42.337,Test1,2023.2.3,121.04004774497146,2024-03-21 18h35.56.037505 -0300,
0,0,0,0,,,,,,,,,4,0,4,0,4,0,4,0,,,,,,,,,,,,,,,,,20.13052775399956,,,,,,,,,,,,,,,,,,,,,,,,,,,,,20.05309148499873,20.05311991799863,20.053126061999137,20.053142167998885,,,,,,,,,,,,,,,,,,,,,635511,001,2024-03-21_18h35.42.337,Test1,2023.2.3,121.04004774497146,2024-03-21 18h35.56.037505 -0300,
0,0,0,0,,,,,,,,,4,0,4,0,5,0,5,0,,,,,,,,,,,,,,,,,20.13052775399956,,,,,,,,,,,,,,,,,,,,,,,,,,,,,20.053279883999494,20.053308378999645,20.05331448099969,20.053330423999796,,,,,,,,,,,,,,,,,,,,,635511,001,2024-03-21_18h35.42.337,Test1,2023.2.3,121.04004774497146,2024-03-21 18h35.56.037505 -0300,
0,0,0,0,,,,,,,,,4,0,4,0,6,0,6,0,,,,,,,,,,,,,,,,,20.13052775399956,,,,,,,,,,,,,,,,,,,,,,,,,,,,,20.053464769998754,20.05349569899954,20.05350209700009,20.053518183998676,,,,,,,,,,,,,,,,,,,,,635511,001,2024-03-21_18h35.42.337,Test1,2023.2.3,121.04004774497146,2024-03-21 18h35.56.037505 -0300,
0,0,0,0,,,,,,,,,4,0,4,0,7,0,7,0,,,,,,,,,,,,,,,,,20.13052775399956,,,,,,,,,,,,,,,,,,,,,,,,,,,,,20.053652859998692,20.053687060999437,20.053693348998422,20.053711683000074,,,,,,,,,,,,,,,,,,,,,635511,001,2024-03-21_18h35.42.337,Test1,2023.2.3,121.04004774497146,2024-03-21 18h35.56.037505 -0300,
0,0,0,0,,,,,,,,,4,0,4,0,8,0,8,0,,,,,,,,,,,,,,,,,20.13052775399956,,,,,,,,,,,,,,,,,,,,,,,,,,,,,20.053849236999667,20.053876768999544,20.053882881999016,20.05389907999961,,,,,,,,,,,,,,,,,,,,,635511,001,2024-03-21_18h35.42.337,Test1,2023.2.3,121.04004774497146,2024-03-21 18h35.56.037505 -0300,
0,0,0,0,,,,,,,,,4,0,4,0,9,0,9,0,,,,,,,,,,,,,,,,,20.13052775399956,,,,,,,,,,,,,,,,,,,,,,,,,,,,,20.054032508998716,20.0540597979998,20.054065943999376,20.05408548399828,,,,,,,,,,,,,,,,,,,,,635511,001,2024-03-21_18h35.42.337,Test1,2023.2.3,121.04004774497146,2024-03-21 18h35.56.037505 -0300,
0,0,0,0,,,,,,,,,4,0,4,0,,,,,,,,,,,,,,,,,,,,,,,,,,,,,,,,,,,,,,,,,,,,,,,,,,,,,,,,,,,,,,,,,,,,,,,,,,635511,001,2024-03-21_18h35.42.337,Test1,2023.2.3,121.04004774497146,2024-03-21 18h35.56.037505 -0300,
0,0,0,0,,,,,,,,,5,0,5,0,0,0,0,0,,,,,,,,,,,,,,,,,20.13052775399956,,,,,,,,,,,,,,,,,,,,,,,,,,,,,20.054577831999268,20.054610663999483,20.05461743699925,20.054634901998725,,,,,,,,,,,,,,,,,,,,,635511,001,2024-03-21_18h35.42.337,Test1,2023.2.3,121.04004774497146,2024-03-21 18h35.56.037505 -0300,
0,0,0,0,,,,,,,,,5,0,5,0,1,0,1,0,,,,,,,,,,,,,,,,,20.13052775399956,,,,,,,,,,,,,,,,,,,,,,,,,,,,,20.054775485999926,20.05480417399849,20.054810826999528,20.054827540998303,,,,,,,,,,,,,,,,,,,,,635511,001,2024-03-21_18h35.42.337,Test1,2023.2.3,121.04004774497146,2024-03-21 18h35.56.037505 -0300,
0,0,0,0,,,,,,,,,5,0,5,0,2,0,2,0,,,,,,,,,,,,,,,,,20.13052775399956,,,,,,,,,,,,,,,,,,,,,,,,,,,,,20.05496889799906,20.05499691299883,20.055003182998917,20.05501989899858,,,,,,,,,,,,,,,,,,,,,635511,001,2024-03-21_18h35.42.337,Test1,2023.2.3,121.04004774497146,2024-03-21 18h35.56.037505 -0300,
0,0,0,0,,,,,,,,,5,0,5,0,3,0,3,0,,,,,,,,,,,,,,,,,20.13052775399956,,,,,,,,,,,,,,,,,,,,,,,,,,,,,20.055162995999126,20.05519429299966,20.055200531000082,20.055216879,,,,,,,,,,,,,,,,,,,,,635511,001,2024-03-21_18h35.42.337,Test1,2023.2.3,121.04004774497146,2024-03-21 18h35.56.037505 -0300,
0,0,0,0,,,,,,,,,5,0,5,0,4,0,4,0,,,,,,,,,,,,,,,,,20.13052775399956,,,,,,,,,,,,,,,,,,,,,,,,,,,,,20.055355509999572,20.05538375099968,20.055389886998455,20.0554062049996,,,,,,,,,,,,,,,,,,,,,635511,001,2024-03-21_18h35.42.337,Test1,2023.2.3,121.04004774497146,2024-03-21 18h35.56.037505 -0300,
0,0,0,0,,,,,,,,,5,0,5,0,5,0,5,0,,,,,,,,,,,,,,,,,20.13052775399956,,,,,,,,,,,,,,,,,,,,,,,,,,,,,20.05554792899966,20.05557527399833,20.055581347998668,20.055597973998374,,,,,,,,,,,,,,,,,,,,,635511,001,2024-03-21_18h35.42.337,Test1,2023.2.3,121.04004774497146,2024-03-21 18h35.56.037505 -0300,
0,0,0,0,,,,,,,,,5,0,5,0,6,0,6,0,,,,,,,,,,,,,,,,,20.13052775399956,,,,,,,,,,,,,,,,,,,,,,,,,,,,,20.055737565999152,20.055765772000086,20.055771886000002,20.055788101999497,,,,,,,,,,,,,,,,,,,,,635511,001,2024-03-21_18h35.42.337,Test1,2023.2.3,121.04004774497146,2024-03-21 18h35.56.037505 -0300,
0,0,0,0,,,,,,,,,5,0,5,0,7,0,7,0,,,,,,,,,,,,,,,,,20.13052775399956,,,,,,,,,,,,,,,,,,,,,,,,,,,,,20.055926761999217,20.05595436999829,20.055960471998333,20.05597644699992,,,,,,,,,,,,,,,,,,,,,635511,001,2024-03-21_18h35.42.337,Test1,2023.2.3,121.04004774497146,2024-03-21 18h35.56.037505 -0300,
0,0,0,0,,,,,,,,,5,0,5,0,8,0,8,0,,,,,,,,,,,,,,,,,20.13052775399956,,,,,,,,,,,,,,,,,,,,,,,,,,,,,20.05611257399869,20.05614025199975,20.05614639199848,20.05616559400005,,,,,,,,,,,,,,,,,,,,,635511,001,2024-03-21_18h35.42.337,Test1,2023.2.3,121.04004774497146,2024-03-21 18h35.56.037505 -0300,
0,0,0,0,,,,,,,,,5,0,5,0,9,0,9,0,,,,,,,,,,,,,,,,,20.13052775399956,,,,,,,,,,,,,,,,,,,,,,,,,,,,,20.056304523999643,20.05633274399952,20.056338941998547,20.05635827399965,,,,,,,,,,,,,,,,,,,,,635511,001,2024-03-21_18h35.42.337,Test1,2023.2.3,121.04004774497146,2024-03-21 18h35.56.037505 -0300,
0,0,0,0,,,,,,,,,5,0,5,0,,,,,,,,,,,,,,,,,,,,,,,,,,,,,,,,,,,,,,,,,,,,,,,,,,,,,,,,,,,,,,,,,,,,,,,,,,635511,001,2024-03-21_18h35.42.337,Test1,2023.2.3,121.04004774497146,2024-03-21 18h35.56.037505 -0300,
0,0,0,0,,,,,,,,,6,0,6,0,0,0,0,0,,,,,,,,,,,,,,,,,20.13052775399956,,,,,,,,,,,,,,,,,,,,,,,,,,,,,20.056826781999916,20.05685860899939,20.056865298998673,20.056885927999247,,,,,,,,,,,,,,,,,,,,,635511,001,2024-03-21_18h35.42.337,Test1,2023.2.3,121.04004774497146,2024-03-21 18h35.56.037505 -0300,
0,0,0,0,,,,,,,,,6,0,6,0,1,0,1,0,,,,,,,,,,,,,,,,,20.13052775399956,,,,,,,,,,,,,,,,,,,,,,,,,,,,,20.057029898998735,20.05706019599893,20.05706660299984,20.057083196999884,,,,,,,,,,,,,,,,,,,,,635511,001,2024-03-21_18h35.42.337,Test1,2023.2.3,121.04004774497146,2024-03-21 18h35.56.037505 -0300,
0,0,0,0,,,,,,,,,6,0,6,0,2,0,2,0,,,,,,,,,,,,,,,,,20.13052775399956,,,,,,,,,,,,,,,,,,,,,,,,,,,,,20.057219937998525,20.057251557998825,20.05725783699927,20.057274369999504,,,,,,,,,,,,,,,,,,,,,635511,001,2024-03-21_18h35.42.337,Test1,2023.2.3,121.04004774497146,2024-03-21 18h35.56.037505 -0300,
0,0,0,0,,,,,,,,,6,0,6,0,3,0,3,0,,,,,,,,,,,,,,,,,20.13052775399956,,,,,,,,,,,,,,,,,,,,,,,,,,,,,20.057410331999563,20.057440627999313,20.05744681499891,20.057463023998935,,,,,,,,,,,,,,,,,,,,,635511,001,2024-03-21_18h35.42.337,Test1,2023.2.3,121.04004774497146,2024-03-21 18h35.56.037505 -0300,
0,0,0,0,,,,,,,,,6,0,6,0,4,0,4,0,,,,,,,,,,,,,,,,,20.13052775399956,,,,,,,,,,,,,,,,,,,,,,,,,,,,,20.05763684699923,20.057664541998747,20.057670782998684,20.057689836999998,,,,,,,,,,,,,,,,,,,,,635511,001,2024-03-21_18h35.42.337,Test1,2023.2.3,121.04004774497146,2024-03-21 18h35.56.037505 -0300,
0,0,0,0,,,,,,,,,6,0,6,0,5,0,5,0,,,,,,,,,,,,,,,,,20.13052775399956,,,,,,,,,,,,,,,,,,,,,,,,,,,,,20.057855729999574,20.057885095999154,20.057891271999324,20.057910883999284,,,,,,,,,,,,,,,,,,,,,635511,001,2024-03-21_18h35.42.337,Test1,2023.2.3,121.04004774497146,2024-03-21 18h35.56.037505 -0300,
0,0,0,0,,,,,,,,,6,0,6,0,6,0,6,0,,,,,,,,,,,,,,,,,20.13052775399956,,,,,,,,,,,,,,,,,,,,,,,,,,,,,20.058051655998497,20.058079966998775,20.058086108998396,20.05810260599901,,,,,,,,,,,,,,,,,,,,,635511,001,2024-03-21_18h35.42.337,Test1,2023.2.3,121.04004774497146,2024-03-21 18h35.56.037505 -0300,
0,0,0,0,,,,,,,,,6,0,6,0,7,0,7,0,,,,,,,,,,,,,,,,,20.13052775399956,,,,,,,,,,,,,,,,,,,,,,,,,,,,,20.058245751999493,20.058273658998587,20.05827989199861,20.058296288998463,,,,,,,,,,,,,,,,,,,,,635511,001,2024-03-21_18h35.42.337,Test1,2023.2.3,121.04004774497146,2024-03-21 18h35.56.037505 -0300,
0,0,0,0,,,,,,,,,6,0,6,0,8,0,8,0,,,,,,,,,,,,,,,,,20.13052775399956,,,,,,,,,,,,,,,,,,,,,,,,,,,,,20.058430361999854,20.05845815199973,20.058464265999646,20.05848048899861,,,,,,,,,,,,,,,,,,,,,635511,001,2024-03-21_18h35.42.337,Test1,2023.2.3,121.04004774497146,2024-03-21 18h35.56.037505 -0300,
0,0,0,0,,,,,,,,,6,0,6,0,9,0,9,0,,,,,,,,,,,,,,,,,20.13052775399956,,,,,,,,,,,,,,,,,,,,,,,,,,,,,20.05861943599848,20.05865017099859,20.058656270999563,20.05867224299982,,,,,,,,,,,,,,,,,,,,,635511,001,2024-03-21_18h35.42.337,Test1,2023.2.3,121.04004774497146,2024-03-21 18h35.56.037505 -0300,
0,0,0,0,,,,,,,,,6,0,6,0,,,,,,,,,,,,,,,,,,,,,,,,,,,,,,,,,,,,,,,,,,,,,,,,,,,,,,,,,,,,,,,,,,,,,,,,,,635511,001,2024-03-21_18h35.42.337,Test1,2023.2.3,121.04004774497146,2024-03-21 18h35.56.037505 -0300,
0,0,0,0,,,,,,,,,7,0,7,0,0,0,0,0,,,,,,,,,,,,,,,,,20.13052775399956,,,,,,,,,,,,,,,,,,,,,,,,,,,,,20.059142262998648,20.059174227999392,20.05918102599935,20.059202295999057,,,,,,,,,,,,,,,,,,,,,635511,001,2024-03-21_18h35.42.337,Test1,2023.2.3,121.04004774497146,2024-03-21 18h35.56.037505 -0300,
0,0,0,0,,,,,,,,,7,0,7,0,1,0,1,0,,,,,,,,,,,,,,,,,20.13052775399956,,,,,,,,,,,,,,,,,,,,,,,,,,,,,20.059346952999476,20.059376145998613,20.05938245699872,20.059402461998616,,,,,,,,,,,,,,,,,,,,,635511,001,2024-03-21_18h35.42.337,Test1,2023.2.3,121.04004774497146,2024-03-21 18h35.56.037505 -0300,
0,0,0,0,,,,,,,,,7,0,7,0,2,0,2,0,,,,,,,,,,,,,,,,,20.13052775399956,,,,,,,,,,,,,,,,,,,,,,,,,,,,,20.05954040999859,20.059568572998614,20.05957512599889,20.059591511999315,,,,,,,,,,,,,,,,,,,,,635511,001,2024-03-21_18h35.42.337,Test1,2023.2.3,121.04004774497146,2024-03-21 18h35.56.037505 -0300,
0,0,0,0,,,,,,,,,7,0,7,0,3,0,3,0,,,,,,,,,,,,,,,,,20.13052775399956,,,,,,,,,,,,,,,,,,,,,,,,,,,,,20.05973035199895,20.059758186998806,20.0597644089994,20.059780721998322,,,,,,,,,,,,,,,,,,,,,635511,001,2024-03-21_18h35.42.337,Test1,2023.2.3,121.04004774497146,2024-03-21 18h35.56.037505 -0300,
0,0,0,0,,,,,,,,,7,0,7,0,4,0,4,0,,,,,,,,,,,,,,,,,20.13052775399956,,,,,,,,,,,,,,,,,,,,,,,,,,,,,20.059918483999354,20.059946529998342,20.05995271699976,20.05996903399864,,,,,,,,,,,,,,,,,,,,,635511,001,2024-03-21_18h35.42.337,Test1,2023.2.3,121.04004774497146,2024-03-21 18h35.56.037505 -0300,
0,0,0,0,,,,,,,,,7,0,7,0,5,0,5,0,,,,,,,,,,,,,,,,,20.13052775399956,,,,,,,,,,,,,,,,,,,,,,,,,,,,,20.06010208999942,20.06013260399959,20.060138756000015,20.060154741999213,,,,,,,,,,,,,,,,,,,,,635511,001,2024-03-21_18h35.42.337,Test1,2023.2.3,121.04004774497146,2024-03-21 18h35.56.037505 -0300,
0,0,0,0,,,,,,,,,7,0,7,0,6,0,6,0,,,,,,,,,,,,,,,,,20.13052775399956,,,,,,,,,,,,,,,,,,,,,,,,,,,,,20.060291195999525,20.0603257699986,20.060332193999784,20.060351348998665,,,,,,,,,,,,,,,,,,,,,635511,001,2024-03-21_18h35.42.337,Test1,2023.2.3,121.04004774497146,2024-03-21 18h35.56.037505 -0300,
0,0,0,0,,,,,,,,,7,0,7,0,7,0,7,0,,,,,,,,,,,,,,,,,20.13052775399956,,,,,,,,,,,,,,,,,,,,,,,,,,,,,20.060501641999508,20.06053011699987,20.06053632199837,20.060552720999112,,,,,,,,,,,,,,,,,,,,,635511,001,2024-03-21_18h35.42.337,Test1,2023.2.3,121.04004774497146,2024-03-21 18h35.56.037505 -0300,
0,0,0,0,,,,,,,,,7,0,7,0,8,0,8,0,,,,,,,,,,,,,,,,,20.13052775399956,,,,,,,,,,,,,,,,,,,,,,,,,,,,,20.06069148699862,20.06072279699947,20.06072907699854,20.06074549299956,,,,,,,,,,,,,,,,,,,,,635511,001,2024-03-21_18h35.42.337,Test1,2023.2.3,121.04004774497146,2024-03-21 18h35.56.037505 -0300,
0,0,0,0,,,,,,,,,7,0,7,0,9,0,9,0,,,,,,,,,,,,,,,,,20.13052775399956,,,,,,,,,,,,,,,,,,,,,,,,,,,,,20.060923065999305,20.060951288998695,20.060957621999478,20.06097713300005,,,,,,,,,,,,,,,,,,,,,635511,001,2024-03-21_18h35.42.337,Test1,2023.2.3,121.04004774497146,2024-03-21 18h35.56.037505 -0300,
0,0,0,0,,,,,,,,,7,0,7,0,,,,,,,,,,,,,,,,,,,,,,,,,,,,,,,,,,,,,,,,,,,,,,,,,,,,,,,,,,,,,,,,,,,,,,,,,,635511,001,2024-03-21_18h35.42.337,Test1,2023.2.3,121.04004774497146,2024-03-21 18h35.56.037505 -0300,
0,0,0,0,,,,,,,,,8,0,8,0,0,0,0,0,,,,,,,,,,,,,,,,,20.13052775399956,,,,,,,,,,,,,,,,,,,,,,,,,,,,,20.061448937998648,20.061480683998525,20.061487445998864,20.061504606999733,,,,,,,,,,,,,,,,,,,,,635511,001,2024-03-21_18h35.42.337,Test1,2023.2.3,121.04004774497146,2024-03-21 18h35.56.037505 -0300,
0,0,0,0,,,,,,,,,8,0,8,0,1,0,1,0,,,,,,,,,,,,,,,,,20.13052775399956,,,,,,,,,,,,,,,,,,,,,,,,,,,,,20.0616450109992,20.06168079999952,20.061687370998698,20.061706751999736,,,,,,,,,,,,,,,,,,,,,635511,001,2024-03-21_18h35.42.337,Test1,2023.2.3,121.04004774497146,2024-03-21 18h35.56.037505 -0300,
0,0,0,0,,,,,,,,,8,0,8,0,2,0,2,0,,,,,,,,,,,,,,,,,20.13052775399956,,,,,,,,,,,,,,,,,,,,,,,,,,,,,20.061845992999224,20.06187770299948,20.06188424299944,20.061900908998723,,,,,,,,,,,,,,,,,,,,,635511,001,2024-03-21_18h35.42.337,Test1,2023.2.3,121.04004774497146,2024-03-21 18h35.56.037505 -0300,
0,0,0,0,,,,,,,,,8,0,8,0,3,0,3,0,,,,,,,,,,,,,,,,,20.13052775399956,,,,,,,,,,,,,,,,,,,,,,,,,,,,,20.062037631998464,20.062065967998933,20.062072230999547,20.06208841699845,,,,,,,,,,,,,,,,,,,,,635511,001,2024-03-21_18h35.42.337,Test1,2023.2.3,121.04004774497146,2024-03-21 18h35.56.037505 -0300,
0,0,0,0,,,,,,,,,8,0,8,0,4,0,4,0,,,,,,,,,,,,,,,,,20.13052775399956,,,,,,,,,,,,,,,,,,,,,,,,,,,,,20.06222407199857,20.062255712999104,20.06226430099923,20.062283089999255,,,,,,,,,,,,,,,,,,,,,635511,001,2024-03-21_18h35.42.337,Test1,2023.2.3,121.04004774497146,2024-03-21 18h35.56.037505 -0300,
0,0,0,0,,,,,,,,,8,0,8,0,5,0,5,0,,,,,,,,,,,,,,,,,20.13052775399956,,,,,,,,,,,,,,,,,,,,,,,,,,,,,20.06249291599852,20.062520923998818,20.062527103998946,20.062543406998884,,,,,,,,,,,,,,,,,,,,,635511,001,2024-03-21_18h35.42.337,Test1,2023.2.3,121.04004774497146,2024-03-21 18h35.56.037505 -0300,
0,0,0,0,,,,,,,,,8,0,8,0,6,0,6,0,,,,,,,,,,,,,,,,,20.13052775399956,,,,,,,,,,,,,,,,,,,,,,,,,,,,,20.062683288999324,20.062712299999475,20.06271852699865,20.062734806999288,,,,,,,,,,,,,,,,,,,,,635511,001,2024-03-21_18h35.42.337,Test1,2023.2.3,121.04004774497146,2024-03-21 18h35.56.037505 -0300,
0,0,0,0,,,,,,,,,8,0,8,0,7,0,7,0,,,,,,,,,,,,,,,,,20.13052775399956,,,,,,,,,,,,,,,,,,,,,,,,,,,,,20.062868344999515,20.062901541999963,20.06290783499935,20.06292450899855,,,,,,,,,,,,,,,,,,,,,635511,001,2024-03-21_18h35.42.337,Test1,2023.2.3,121.04004774497146,2024-03-21 18h35.56.037505 -0300,
0,0,0,0,,,,,,,,,8,0,8,0,8,0,8,0,,,,,,,,,,,,,,,,,20.13052775399956,,,,,,,,,,,,,,,,,,,,,,,,,,,,,20.063063536999834,20.06309124499967,20.063097483000092,20.063113931999396,,,,,,,,,,,,,,,,,,,,,635511,001,2024-03-21_18h35.42.337,Test1,2023.2.3,121.04004774497146,2024-03-21 18h35.56.037505 -0300,
0,0,0,0,,,,,,,,,8,0,8,0,9,0,9,0,,,,,,,,,,,,,,,,,20.13052775399956,,,,,,,,,,,,,,,,,,,,,,,,,,,,,20.063253600999815,20.06328201999895,20.06328809599836,20.06330427699868,,,,,,,,,,,,,,,,,,,,,635511,001,2024-03-21_18h35.42.337,Test1,2023.2.3,121.04004774497146,2024-03-21 18h35.56.037505 -0300,
0,0,0,0,,,,,,,,,8,0,8,0,,,,,,,,,,,,,,,,,,,,,,,,,,,,,,,,,,,,,,,,,,,,,,,,,,,,,,,,,,,,,,,,,,,,,,,,,,635511,001,2024-03-21_18h35.42.337,Test1,2023.2.3,121.04004774497146,2024-03-21 18h35.56.037505 -0300,
0,0,0,0,,,,,,,,,9,0,9,0,0,0,0,0,,,,,,,,,,,,,,,,,20.13052775399956,,,,,,,,,,,,,,,,,,,,,,,,,,,,,20.063795903999562,20.06383117599944,20.063838006999504,20.063855133999823,,,,,,,,,,,,,,,,,,,,,635511,001,2024-03-21_18h35.42.337,Test1,2023.2.3,121.04004774497146,2024-03-21 18h35.56.037505 -0300,
0,0,0,0,,,,,,,,,9,0,9,0,1,0,1,0,,,,,,,,,,,,,,,,,20.13052775399956,,,,,,,,,,,,,,,,,,,,,,,,,,,,,20.06399618299838,20.064023956998426,20.064030276998892,20.064046609999423,,,,,,,,,,,,,,,,,,,,,635511,001,2024-03-21_18h35.42.337,Test1,2023.2.3,121.04004774497146,2024-03-21 18h35.56.037505 -0300,
0,0,0,0,,,,,,,,,9,0,9,0,2,0,2,0,,,,,,,,,,,,,,,,,20.13052775399956,,,,,,,,,,,,,,,,,,,,,,,,,,,,,20.064192799998636,20.06422124599885,20.06422752599974,20.064243793998685,,,,,,,,,,,,,,,,,,,,,635511,001,2024-03-21_18h35.42.337,Test1,2023.2.3,121.04004774497146,2024-03-21 18h35.56.037505 -0300,
0,0,0,0,,,,,,,,,9,0,9,0,3,0,3,0,,,,,,,,,,,,,,,,,20.13052775399956,,,,,,,,,,,,,,,,,,,,,,,,,,,,,20.064379749999716,20.06441309099864,20.06444320599985,20.064467663998585,,,,,,,,,,,,,,,,,,,,,635511,001,2024-03-21_18h35.42.337,Test1,2023.2.3,121.04004774497146,2024-03-21 18h35.56.037505 -0300,
0,0,0,0,,,,,,,,,9,0,9,0,4,0,4,0,,,,,,,,,,,,,,,,,20.13052775399956,,,,,,,,,,,,,,,,,,,,,,,,,,,,,20.0646071379997,20.064638391999324,20.064644934998796,20.06466149299922,,,,,,,,,,,,,,,,,,,,,635511,001,2024-03-21_18h35.42.337,Test1,2023.2.3,121.04004774497146,2024-03-21 18h35.56.037505 -0300,
0,0,0,0,,,,,,,,,9,0,9,0,5,0,5,0,,,,,,,,,,,,,,,,,20.13052775399956,,,,,,,,,,,,,,,,,,,,,,,,,,,,,20.06480567199833,20.064833986998565,20.06484028399973,20.064856642999075,,,,,,,,,,,,,,,,,,,,,635511,001,2024-03-21_18h35.42.337,Test1,2023.2.3,121.04004774497146,2024-03-21 18h35.56.037505 -0300,
0,0,0,0,,,,,,,,,9,0,9,0,6,0,6,0,,,,,,,,,,,,,,,,,20.13052775399956,,,,,,,,,,,,,,,,,,,,,,,,,,,,,20.064991991999705,20.06502324199937,20.065029610999773,20.065047842999775,,,,,,,,,,,,,,,,,,,,,635511,001,2024-03-21_18h35.42.337,Test1,2023.2.3,121.04004774497146,2024-03-21 18h35.56.037505 -0300,
0,0,0,0,,,,,,,,,9,0,9,0,7,0,7,0,,,,,,,,,,,,,,,,,20.13052775399956,,,,,,,,,,,,,,,,,,,,,,,,,,,,,20.06518275899907,20.06520988199918,20.065215965998505,20.06523191999986,,,,,,,,,,,,,,,,,,,,,635511,001,2024-03-21_18h35.42.337,Test1,2023.2.3,121.04004774497146,2024-03-21 18h35.56.037505 -0300,
0,0,0,0,,,,,,,,,9,0,9,0,8,0,8,0,,,,,,,,,,,,,,,,,20.13052775399956,,,,,,,,,,,,,,,,,,,,,,,,,,,,,20.065369415999157,20.065396902999055,20.06540317100007,20.065419139998994,,,,,,,,,,,,,,,,,,,,,635511,001,2024-03-21_18h35.42.337,Test1,2023.2.3,121.04004774497146,2024-03-21 18h35.56.037505 -0300,
0,0,0,0,,,,,,,,,9,0,9,0,9,0,9,0,,,,,,,,,,,,,,,,,20.13052775399956,,,,,,,,,,,,,,,,,,,,,,,,,,,,,20.06555318199935,20.065581363998717,20.065587459999733,20.065607013999397,,,,,,,,,,,,,,,,,,,,,635511,001,2024-03-21_18h35.42.337,Test1,2023.2.3,121.04004774497146,2024-03-21 18h35.56.037505 -0300,
0,0,0,0,,,,,,,,,9,0,9,0,,,,,,,,,,,,,,,,,,,,,,,,,,,,,,,,,,,,,,,,,,,,,,,,,,,,,,,,,,,,,,,,,,,,,,,,,,635511,001,2024-03-21_18h35.42.337,Test1,2023.2.3,121.04004774497146,2024-03-21 18h35.56.037505 -0300,
0,0,0,0,,,,,,,,,,,,,,,,,0,0,0,0,0,0,0,0,,,,,,,,,20.13052775399956,,,,,,,,,,,,,,,,,,,,,,,,,,,,,,,,,20.066481812998973,20.066527946999486,20.06653538199862,20.066553417998875,,,,,,,,,,,,,,,,,635511,001,2024-03-21_18h35.42.337,Test1,2023.2.3,121.04004774497146,2024-03-21 18h35.56.037505 -0300,
0,0,0,0,,,,,,,,,,,,,,,,,0,0,0,0,1,0,1,0,,,,,,,,,20.13052775399956,,,,,,,,,,,,,,,,,,,,,,,,,,,,,,,,,20.06669746299849,20.066729817999658,20.066736296999807,20.066752758999428,,,,,,,,,,,,,,,,,635511,001,2024-03-21_18h35.42.337,Test1,2023.2.3,121.04004774497146,2024-03-21 18h35.56.037505 -0300,
0,0,0,0,,,,,,,,,,,,,,,,,0,0,0,0,2,0,2,0,,,,,,,,,20.13052775399956,,,,,,,,,,,,,,,,,,,,,,,,,,,,,,,,,20.066898295999636,20.066933868998603,20.0669404579985,20.06695295099962,,,,,,,,,,,,,,,,,635511,001,2024-03-21_18h35.42.337,Test1,2023.2.3,121.04004774497146,2024-03-21 18h35.56.037505 -0300,
0,0,0,0,,,,,,,,,,,,,,,,,0,0,0,0,3,0,3,0,,,,,,,,,20.13052775399956,,,,,,,,,,,,,,,,,,,,,,,,,,,,,,,,,20.067092485998728,20.067123916998753,20.067130170999008,20.067142711999622,,,,,,,,,,,,,,,,,635511,001,2024-03-21_18h35.42.337,Test1,2023.2.3,121.04004774497146,2024-03-21 18h35.56.037505 -0300,
0,0,0,0,,,,,,,,,,,,,,,,,0,0,0,0,4,0,4,0,,,,,,,,,20.13052775399956,,,,,,,,,,,,,,,,,,,,,,,,,,,,,,,,,20.067277377998835,20.067308228999536,20.067314433999854,20.06732695199935,,,,,,,,,,,,,,,,,635511,001,2024-03-21_18h35.42.337,Test1,2023.2.3,121.04004774497146,2024-03-21 18h35.56.037505 -0300,
0,0,0,0,,,,,,,,,,,,,,,,,0,0,0,0,5,0,5,0,,,,,,,,,20.13052775399956,,,,,,,,,,,,,,,,,,,,,,,,,,,,,,,,,20.067471022999598,20.067505241999243,20.067511865998313,20.06752456599861,,,,,,,,,,,,,,,,,635511,001,2024-03-21_18h35.42.337,Test1,2023.2.3,121.04004774497146,2024-03-21 18h35.56.037505 -0300,
0,0,0,0,,,,,,,,,,,,,,,,,0,0,0,0,6,0,6,0,,,,,,,,,20.13052775399956,,,,,,,,,,,,,,,,,,,,,,,,,,,,,,,,,20.06766335699831,20.06769435699971,20.067700605999562,20.067712931999267,,,,,,,,,,,,,,,,,635511,001,2024-03-21_18h35.42.337,Test1,2023.2.3,121.04004774497146,2024-03-21 18h35.56.037505 -0300,
0,0,0,0,,,,,,,,,,,,,,,,,0,0,0,0,7,0,7,0,,,,,,,,,20.13052775399956,,,,,,,,,,,,,,,,,,,,,,,,,,,,,,,,,20.0678475529985,20.067878433999795,20.067884634998336,20.067897058999733,,,,,,,,,,,,,,,,,635511,001,2024-03-21_18h35.42.337,Test1,2023.2.3,121.04004774497146,2024-03-21 18h35.56.037505 -0300,
0,0,0,0,,,,,,,,,,,,,,,,,0,0,0,0,8,0,8,0,,,,,,,,,20.13052775399956,,,,,,,,,,,,,,,,,,,,,,,,,,,,,,,,,20.068039412999497,20.068070226998316,20.0680764789995,20.068088772999545,,,,,,,,,,,,,,,,,635511,001,2024-03-21_18h35.42.337,Test1,2023.2.3,121.04004774497146,2024-03-21 18h35.56.037505 -0300,
0,0,0,0,,,,,,,,,,,,,,,,,0,0,0,0,9,0,9,0,,,,,,,,,20.13052775399956,,,,,,,,,,,,,,,,,,,,,,,,,,,,,,,,,20.06822276499952,20.06825726599891,20.068263580998973,20.06827583499944,,,,,,,,,,,,,,,,,635511,001,2024-03-21_18h35.42.337,Test1,2023.2.3,121.04004774497146,2024-03-21 18h35.56.037505 -0300,
0,0,0,0,,,,,,,,,,,,,,,,,0,0,0,0,,,,,,,,,,,,,,,,,,,,,,,,,,,,,,,,,,,,,,,,,,,,,,,,,,,,,,,,,,,,,,,,,,635511,001,2024-03-21_18h35.42.337,Test1,2023.2.3,121.04004774497146,2024-03-21 18h35.56.037505 -0300,
0,0,0,0,,,,,,,,,,,,,,,,,1,0,1,0,0,0,0,0,,,,,,,,,20.13052775399956,,,,,,,,,,,,,,,,,,,,,,,,,,,,,,,,,20.068829155999993,20.068865594999806,20.068872560999807,20.06888548399911,,,,,,,,,,,,,,,,,635511,001,2024-03-21_18h35.42.337,Test1,2023.2.3,121.04004774497146,2024-03-21 18h35.56.037505 -0300,
0,0,0,0,,,,,,,,,,,,,,,,,1,0,1,0,1,0,1,0,,,,,,,,,20.13052775399956,,,,,,,,,,,,,,,,,,,,,,,,,,,,,,,,,20.069028502999572,20.069061426998815,20.06906773799892,20.069083166999917,,,,,,,,,,,,,,,,,635511,001,2024-03-21_18h35.42.337,Test1,2023.2.3,121.04004774497146,2024-03-21 18h35.56.037505 -0300,
0,0,0,0,,,,,,,,,,,,,,,,,1,0,1,0,2,0,2,0,,,,,,,,,20.13052775399956,,,,,,,,,,,,,,,,,,,,,,,,,,,,,,,,,20.069225164999807,20.069257205999747,20.06926350199865,20.069276276999517,,,,,,,,,,,,,,,,,635511,001,2024-03-21_18h35.42.337,Test1,2023.2.3,121.04004774497146,2024-03-21 18h35.56.037505 -0300,
0,0,0,0,,,,,,,,,,,,,,,,,1,0,1,0,3,0,3,0,,,,,,,,,20.13052775399956,,,,,,,,,,,,,,,,,,,,,,,,,,,,,,,,,20.069440576999114,20.069494786999712,20.06950124099967,20.069513656999334,,,,,,,,,,,,,,,,,635511,001,2024-03-21_18h35.42.337,Test1,2023.2.3,121.04004774497146,2024-03-21 18h35.56.037505 -0300,
0,0,0,0,,,,,,,,,,,,,,,,,1,0,1,0,4,0,4,0,,,,,,,,,20.13052775399956,,,,,,,,,,,,,,,,,,,,,,,,,,,,,,,,,20.069650263998483,20.06968213699838,20.069688308998593,20.069700833999377,,,,,,,,,,,,,,,,,635511,001,2024-03-21_18h35.42.337,Test1,2023.2.3,121.04004774497146,2024-03-21 18h35.56.037505 -0300,
0,0,0,0,,,,,,,,,,,,,,,,,1,0,1,0,5,0,5,0,,,,,,,,,20.13052775399956,,,,,,,,,,,,,,,,,,,,,,,,,,,,,,,,,20.06995154499964,20.06998308099901,20.06998940399899,20.070001962998504,,,,,,,,,,,,,,,,,635511,001,2024-03-21_18h35.42.337,Test1,2023.2.3,121.04004774497146,2024-03-21 18h35.56.037505 -0300,
0,0,0,0,,,,,,,,,,,,,,,,,1,0,1,0,6,0,6,0,,,,,,,,,20.13052775399956,,,,,,,,,,,,,,,,,,,,,,,,,,,,,,,,,20.070145996000065,20.07017725500009,20.0701835939999,20.07019568099895,,,,,,,,,,,,,,,,,635511,001,2024-03-21_18h35.42.337,Test1,2023.2.3,121.04004774497146,2024-03-21 18h35.56.037505 -0300,
0,0,0,0,,,,,,,,,,,,,,,,,1,0,1,0,7,0,7,0,,,,,,,,,20.13052775399956,,,,,,,,,,,,,,,,,,,,,,,,,,,,,,,,,20.07033436799975,20.070365732999562,20.07037196499914,20.070384568998634,,,,,,,,,,,,,,,,,635511,001,2024-03-21_18h35.42.337,Test1,2023.2.3,121.04004774497146,2024-03-21 18h35.56.037505 -0300,
0,0,0,0,,,,,,,,,,,,,,,,,1,0,1,0,8,0,8,0,,,,,,,,,20.13052775399956,,,,,,,,,,,,,,,,,,,,,,,,,,,,,,,,,20.070522090998566,20.070555970998612,20.07056224199914,20.07057476599948,,,,,,,,,,,,,,,,,635511,001,2024-03-21_18h35.42.337,Test1,2023.2.3,121.04004774497146,2024-03-21 18h35.56.037505 -0300,
0,0,0,0,,,,,,,,,,,,,,,,,1,0,1,0,9,0,9,0,,,,,,,,,20.13052775399956,,,,,,,,,,,,,,,,,,,,,,,,,,,,,,,,,20.07071627899859,20.070747280999058,20.070753491998403,20.07076585699906,,,,,,,,,,,,,,,,,635511,001,2024-03-21_18h35.42.337,Test1,2023.2.3,121.04004774497146,2024-03-21 18h35.56.037505 -0300,
0,0,0,0,,,,,,,,,,,,,,,,,1,0,1,0,,,,,,,,,,,,,,,,,,,,,,,,,,,,,,,,,,,,,,,,,,,,,,,,,,,,,,,,,,,,,,,,,,635511,001,2024-03-21_18h35.42.337,Test1,2023.2.3,121.04004774497146,2024-03-21 18h35.56.037505 -0300,
0,0,0,0,,,,,,,,,,,,,,,,,2,0,2,0,0,0,0,0,,,,,,,,,20.13052775399956,,,,,,,,,,,,,,,,,,,,,,,,,,,,,,,,,20.071354586998496,20.07142599100007,20.071451786998296,20.071480919999885,,,,,,,,,,,,,,,,,635511,001,2024-03-21_18h35.42.337,Test1,2023.2.3,121.04004774497146,2024-03-21 18h35.56.037505 -0300,
0,0,0,0,,,,,,,,,,,,,,,,,2,0,2,0,1,0,1,0,,,,,,,,,20.13052775399956,,,,,,,,,,,,,,,,,,,,,,,,,,,,,,,,,20.071656578998955,20.071705018999637,20.071711607999532,20.07172451399856,,,,,,,,,,,,,,,,,635511,001,2024-03-21_18h35.42.337,Test1,2023.2.3,121.04004774497146,2024-03-21 18h35.56.037505 -0300,
0,0,0,0,,,,,,,,,,,,,,,,,2,0,2,0,2,0,2,0,,,,,,,,,20.13052775399956,,,,,,,,,,,,,,,,,,,,,,,,,,,,,,,,,20.071869000999868,20.071900648999872,20.07190689899835,20.07191930999943,,,,,,,,,,,,,,,,,635511,001,2024-03-21_18h35.42.337,Test1,2023.2.3,121.04004774497146,2024-03-21 18h35.56.037505 -0300,
0,0,0,0,,,,,,,,,,,,,,,,,2,0,2,0,3,0,3,0,,,,,,,,,20.13052775399956,,,,,,,,,,,,,,,,,,,,,,,,,,,,,,,,,20.072060597998643,20.072092867998435,20.072099276998415,20.072112113999538,,,,,,,,,,,,,,,,,635511,001,2024-03-21_18h35.42.337,Test1,2023.2.3,121.04004774497146,2024-03-21 18h35.56.037505 -0300,
0,0,0,0,,,,,,,,,,,,,,,,,2,0,2,0,4,0,4,0,,,,,,,,,20.13052775399956,,,,,,,,,,,,,,,,,,,,,,,,,,,,,,,,,20.072253911999724,20.07232347199897,20.072330280998358,20.07235943499836,,,,,,,,,,,,,,,,,635511,001,2024-03-21_18h35.42.337,Test1,2023.2.3,121.04004774497146,2024-03-21 18h35.56.037505 -0300,
0,0,0,0,,,,,,,,,,,,,,,,,2,0,2,0,5,0,5,0,,,,,,,,,20.13052775399956,,,,,,,,,,,,,,,,,,,,,,,,,,,,,,,,,20.072549261998574,20.072580370999276,20.07258654999896,20.07259902199985,,,,,,,,,,,,,,,,,635511,001,2024-03-21_18h35.42.337,Test1,2023.2.3,121.04004774497146,2024-03-21 18h35.56.037505 -0300,
0,0,0,0,,,,,,,,,,,,,,,,,2,0,2,0,6,0,6,0,,,,,,,,,20.13052775399956,,,,,,,,,,,,,,,,,,,,,,,,,,,,,,,,,20.072740395999062,20.072770730999764,20.07277699199949,20.072789476998878,,,,,,,,,,,,,,,,,635511,001,2024-03-21_18h35.42.337,Test1,2023.2.3,121.04004774497146,2024-03-21 18h35.56.037505 -0300,
0,0,0,0,,,,,,,,,,,,,,,,,2,0,2,0,7,0,7,0,,,,,,,,,20.13052775399956,,,,,,,,,,,,,,,,,,,,,,,,,,,,,,,,,20.072926511998958,20.072961014999237,20.072967362999407,20.072979827999006,,,,,,,,,,,,,,,,,635511,001,2024-03-21_18h35.42.337,Test1,2023.2.3,121.04004774497146,2024-03-21 18h35.56.037505 -0300,
0,0,0,0,,,,,,,,,,,,,,,,,2,0,2,0,8,0,8,0,,,,,,,,,20.13052775399956,,,,,,,,,,,,,,,,,,,,,,,,,,,,,,,,,20.073116300998663,20.07314713999949,20.07315331999962,20.073165503999917,,,,,,,,,,,,,,,,,635511,001,2024-03-21_18h35.42.337,Test1,2023.2.3,121.04004774497146,2024-03-21 18h35.56.037505 -0300,
0,0,0,0,,,,,,,,,,,,,,,,,2,0,2,0,9,0,9,0,,,,,,,,,20.13052775399956,,,,,,,,,,,,,,,,,,,,,,,,,,,,,,,,,20.073305586998686,20.073336690998985,20.07334290199833,20.073355021999305,,,,,,,,,,,,,,,,,635511,001,2024-03-21_18h35.42.337,Test1,2023.2.3,121.04004774497146,2024-03-21 18h35.56.037505 -0300,
0,0,0,0,,,,,,,,,,,,,,,,,2,0,2,0,,,,,,,,,,,,,,,,,,,,,,,,,,,,,,,,,,,,,,,,,,,,,,,,,,,,,,,,,,,,,,,,,,635511,001,2024-03-21_18h35.42.337,Test1,2023.2.3,121.04004774497146,2024-03-21 18h35.56.037505 -0300,
0,0,0,0,,,,,,,,,,,,,,,,,3,0,3,0,0,0,0,0,,,,,,,,,20.13052775399956,,,,,,,,,,,,,,,,,,,,,,,,,,,,,,,,,20.074020609999934,20.07405625299907,20.074063286998353,20.074076360999243,,,,,,,,,,,,,,,,,635511,001,2024-03-21_18h35.42.337,Test1,2023.2.3,121.04004774497146,2024-03-21 18h35.56.037505 -0300,
0,0,0,0,,,,,,,,,,,,,,,,,3,0,3,0,1,0,1,0,,,,,,,,,20.13052775399956,,,,,,,,,,,,,,,,,,,,,,,,,,,,,,,,,20.074265951998314,20.07429869599946,20.074305046999143,20.0743175109983,,,,,,,,,,,,,,,,,635511,001,2024-03-21_18h35.42.337,Test1,2023.2.3,121.04004774497146,2024-03-21 18h35.56.037505 -0300,
0,0,0,0,,,,,,,,,,,,,,,,,3,0,3,0,2,0,2,0,,,,,,,,,20.13052775399956,,,,,,,,,,,,,,,,,,,,,,,,,,,,,,,,,20.07445485199969,20.074524666999423,20.074547342999722,20.074576620998414,,,,,,,,,,,,,,,,,635511,001,2024-03-21_18h35.42.337,Test1,2023.2.3,121.04004774497146,2024-03-21 18h35.56.037505 -0300,
0,0,0,0,,,,,,,,,,,,,,,,,3,0,3,0,3,0,3,0,,,,,,,,,20.13052775399956,,,,,,,,,,,,,,,,,,,,,,,,,,,,,,,,,20.074924200998794,20.075001614999564,20.07500895799967,20.07502284899965,,,,,,,,,,,,,,,,,635511,001,2024-03-21_18h35.42.337,Test1,2023.2.3,121.04004774497146,2024-03-21 18h35.56.037505 -0300,
0,0,0,0,,,,,,,,,,,,,,,,,3,0,3,0,4,0,4,0,,,,,,,,,20.13052775399956,,,,,,,,,,,,,,,,,,,,,,,,,,,,,,,,,20.075281561999873,20.07533524199971,20.075342186999478,20.07535577999988,,,,,,,,,,,,,,,,,635511,001,2024-03-21_18h35.42.337,Test1,2023.2.3,121.04004774497146,2024-03-21 18h35.56.037505 -0300,
0,0,0,0,,,,,,,,,,,,,,,,,3,0,3,0,5,0,5,0,,,,,,,,,20.13052775399956,,,,,,,,,,,,,,,,,,,,,,,,,,,,,,,,,20.075501564999286,20.07553808099874,20.075544741999693,20.07555748699997,,,,,,,,,,,,,,,,,635511,001,2024-03-21_18h35.42.337,Test1,2023.2.3,121.04004774497146,2024-03-21 18h35.56.037505 -0300,
0,0,0,0,,,,,,,,,,,,,,,,,3,0,3,0,6,0,6,0,,,,,,,,,20.13052775399956,,,,,,,,,,,,,,,,,,,,,,,,,,,,,,,,,20.07570535999912,20.075737582999864,20.075744080999357,20.075756576999993,,,,,,,,,,,,,,,,,635511,001,2024-03-21_18h35.42.337,Test1,2023.2.3,121.04004774497146,2024-03-21 18h35.56.037505 -0300,
0,0,0,0,,,,,,,,,,,,,,,,,3,0,3,0,7,0,7,0,,,,,,,,,20.13052775399956,,,,,,,,,,,,,,,,,,,,,,,,,,,,,,,,,20.075902630998826,20.075935488999676,20.075941903998682,20.075954663998345,,,,,,,,,,,,,,,,,635511,001,2024-03-21_18h35.42.337,Test1,2023.2.3,121.04004774497146,2024-03-21 18h35.56.037505 -0300,
0,0,0,0,,,,,,,,,,,,,,,,,3,0,3,0,8,0,8,0,,,,,,,,,20.13052775399956,,,,,,,,,,,,,,,,,,,,,,,,,,,,,,,,,20.076127106000058,20.076159670999914,20.076165907999894,20.076178355999218,,,,,,,,,,,,,,,,,635511,001,2024-03-21_18h35.42.337,Test1,2023.2.3,121.04004774497146,2024-03-21 18h35.56.037505 -0300,
0,0,0,0,,,,,,,,,,,,,,,,,3,0,3,0,9,0,9,0,,,,,,,,,20.13052775399956,,,,,,,,,,,,,,,,,,,,,,,,,,,,,,,,,20.07631795299858,20.076349354998456,20.076355998999134,20.076368411999283,,,,,,,,,,,,,,,,,635511,001,2024-03-21_18h35.42.337,Test1,2023.2.3,121.04004774497146,2024-03-21 18h35.56.037505 -0300,
0,0,0,0,,,,,,,,,,,,,,,,,3,0,3,0,,,,,,,,,,,,,,,,,,,,,,,,,,,,,,,,,,,,,,,,,,,,,,,,,,,,,,,,,,,,,,,,,,635511,001,2024-03-21_18h35.42.337,Test1,2023.2.3,121.04004774497146,2024-03-21 18h35.56.037505 -0300,
0,0,0,0,,,,,,,,,,,,,,,,,4,0,4,0,0,0,0,0,,,,,,,,,20.13052775399956,,,,,,,,,,,,,,,,,,,,,,,,,,,,,,,,,20.076983671999187,20.07702074699955,20.07702789599898,20.07704124799966,,,,,,,,,,,,,,,,,635511,001,2024-03-21_18h35.42.337,Test1,2023.2.3,121.04004774497146,2024-03-21 18h35.56.037505 -0300,
0,0,0,0,,,,,,,,,,,,,,,,,4,0,4,0,1,0,1,0,,,,,,,,,20.13052775399956,,,,,,,,,,,,,,,,,,,,,,,,,,,,,,,,,20.07718913499957,20.077221492998433,20.077228169999216,20.077240700999027,,,,,,,,,,,,,,,,,635511,001,2024-03-21_18h35.42.337,Test1,2023.2.3,121.04004774497146,2024-03-21 18h35.56.037505 -0300,
0,0,0,0,,,,,,,,,,,,,,,,,4,0,4,0,2,0,2,0,,,,,,,,,20.13052775399956,,,,,,,,,,,,,,,,,,,,,,,,,,,,,,,,,20.077386289998685,20.077417825999873,20.07742413899905,20.07743655899867,,,,,,,,,,,,,,,,,635511,001,2024-03-21_18h35.42.337,Test1,2023.2.3,121.04004774497146,2024-03-21 18h35.56.037505 -0300,
0,0,0,0,,,,,,,,,,,,,,,,,4,0,4,0,3,0,3,0,,,,,,,,,20.13052775399956,,,,,,,,,,,,,,,,,,,,,,,,,,,,,,,,,20.07757736699932,20.077608448998944,20.07761475299958,20.077626990998397,,,,,,,,,,,,,,,,,635511,001,2024-03-21_18h35.42.337,Test1,2023.2.3,121.04004774497146,2024-03-21 18h35.56.037505 -0300,
0,0,0,0,,,,,,,,,,,,,,,,,4,0,4,0,4,0,4,0,,,,,,,,,20.13052775399956,,,,,,,,,,,,,,,,,,,,,,,,,,,,,,,,,20.07776804799869,20.07779915199899,20.077805503999116,20.077817986999435,,,,,,,,,,,,,,,,,635511,001,2024-03-21_18h35.42.337,Test1,2023.2.3,121.04004774497146,2024-03-21 18h35.56.037505 -0300,
0,0,0,0,,,,,,,,,,,,,,,,,4,0,4,0,5,0,5,0,,,,,,,,,20.13052775399956,,,,,,,,,,,,,,,,,,,,,,,,,,,,,,,,,20.07795811699907,20.077989101999265,20.077995336998356,20.078007572999923,,,,,,,,,,,,,,,,,635511,001,2024-03-21_18h35.42.337,Test1,2023.2.3,121.04004774497146,2024-03-21 18h35.56.037505 -0300,
0,0,0,0,,,,,,,,,,,,,,,,,4,0,4,0,6,0,6,0,,,,,,,,,20.13052775399956,,,,,,,,,,,,,,,,,,,,,,,,,,,,,,,,,20.07814384499943,20.078175032998843,20.078181277998738,20.07819360599933,,,,,,,,,,,,,,,,,635511,001,2024-03-21_18h35.42.337,Test1,2023.2.3,121.04004774497146,2024-03-21 18h35.56.037505 -0300,
0,0,0,0,,,,,,,,,,,,,,,,,4,0,4,0,7,0,7,0,,,,,,,,,20.13052775399956,,,,,,,,,,,,,,,,,,,,,,,,,,,,,,,,,20.078341176998947,20.078372162999585,20.078378531999988,20.078390966998995,,,,,,,,,,,,,,,,,635511,001,2024-03-21_18h35.42.337,Test1,2023.2.3,121.04004774497146,2024-03-21 18h35.56.037505 -0300,
0,0,0,0,,,,,,,,,,,,,,,,,4,0,4,0,8,0,8,0,,,,,,,,,20.13052775399956,,,,,,,,,,,,,,,,,,,,,,,,,,,,,,,,,20.078529073998652,20.07855996899889,20.078566299998784,20.07857917199908,,,,,,,,,,,,,,,,,635511,001,2024-03-21_18h35.42.337,Test1,2023.2.3,121.04004774497146,2024-03-21 18h35.56.037505 -0300,
0,0,0,0,,,,,,,,,,,,,,,,,4,0,4,0,9,0,9,0,,,,,,,,,20.13052775399956,,,,,,,,,,,,,,,,,,,,,,,,,,,,,,,,,20.078711835998547,20.078742766998403,20.07874899499984,20.07876139199834,,,,,,,,,,,,,,,,,635511,001,2024-03-21_18h35.42.337,Test1,2023.2.3,121.04004774497146,2024-03-21 18h35.56.037505 -0300,
0,0,0,0,,,,,,,,,,,,,,,,,4,0,4,0,,,,,,,,,,,,,,,,,,,,,,,,,,,,,,,,,,,,,,,,,,,,,,,,,,,,,,,,,,,,,,,,,,635511,001,2024-03-21_18h35.42.337,Test1,2023.2.3,121.04004774497146,2024-03-21 18h35.56.037505 -0300,
0,0,0,0,,,,,,,,,,,,,,,,,5,0,5,0,0,0,0,0,,,,,,,,,20.13052775399956,,,,,,,,,,,,,,,,,,,,,,,,,,,,,,,,,20.07935065499987,20.079386828998395,20.07939376699869,20.079406973000005,,,,,,,,,,,,,,,,,635511,001,2024-03-21_18h35.42.337,Test1,2023.2.3,121.04004774497146,2024-03-21 18h35.56.037505 -0300,
0,0,0,0,,,,,,,,,,,,,,,,,5,0,5,0,1,0,1,0,,,,,,,,,20.13052775399956,,,,,,,,,,,,,,,,,,,,,,,,,,,,,,,,,20.079548439000064,20.079580502999306,20.079586979998567,20.079599668999435,,,,,,,,,,,,,,,,,635511,001,2024-03-21_18h35.42.337,Test1,2023.2.3,121.04004774497146,2024-03-21 18h35.56.037505 -0300,
0,0,0,0,,,,,,,,,,,,,,,,,5,0,5,0,2,0,2,0,,,,,,,,,20.13052775399956,,,,,,,,,,,,,,,,,,,,,,,,,,,,,,,,,20.07974859299975,20.079780700998526,20.079787157999817,20.079799913999523,,,,,,,,,,,,,,,,,635511,001,2024-03-21_18h35.42.337,Test1,2023.2.3,121.04004774497146,2024-03-21 18h35.56.037505 -0300,
0,0,0,0,,,,,,,,,,,,,,,,,5,0,5,0,3,0,3,0,,,,,,,,,20.13052775399956,,,,,,,,,,,,,,,,,,,,,,,,,,,,,,,,,20.07994226699884,20.079973240999607,20.07997964199967,20.079992035000032,,,,,,,,,,,,,,,,,635511,001,2024-03-21_18h35.42.337,Test1,2023.2.3,121.04004774497146,2024-03-21 18h35.56.037505 -0300,
0,0,0,0,,,,,,,,,,,,,,,,,5,0,5,0,4,0,4,0,,,,,,,,,20.13052775399956,,,,,,,,,,,,,,,,,,,,,,,,,,,,,,,,,20.08012597999914,20.08015738299946,20.08016355899963,20.080175746999885,,,,,,,,,,,,,,,,,635511,001,2024-03-21_18h35.42.337,Test1,2023.2.3,121.04004774497146,2024-03-21 18h35.56.037505 -0300,
0,0,0,0,,,,,,,,,,,,,,,,,5,0,5,0,5,0,5,0,,,,,,,,,20.13052775399956,,,,,,,,,,,,,,,,,,,,,,,,,,,,,,,,,20.080387848998726,20.080419194999195,20.080425313999513,20.080437711998457,,,,,,,,,,,,,,,,,635511,001,2024-03-21_18h35.42.337,Test1,2023.2.3,121.04004774497146,2024-03-21 18h35.56.037505 -0300,
0,0,0,0,,,,,,,,,,,,,,,,,5,0,5,0,6,0,6,0,,,,,,,,,20.13052775399956,,,,,,,,,,,,,,,,,,,,,,,,,,,,,,,,,20.080577142998663,20.08060806999856,20.08061437699871,20.08062676999907,,,,,,,,,,,,,,,,,635511,001,2024-03-21_18h35.42.337,Test1,2023.2.3,121.04004774497146,2024-03-21 18h35.56.037505 -0300,
0,0,0,0,,,,,,,,,,,,,,,,,5,0,5,0,7,0,7,0,,,,,,,,,20.13052775399956,,,,,,,,,,,,,,,,,,,,,,,,,,,,,,,,,20.080761506998897,20.080792046999704,20.080798183998922,20.080810472998564,,,,,,,,,,,,,,,,,635511,001,2024-03-21_18h35.42.337,Test1,2023.2.3,121.04004774497146,2024-03-21 18h35.56.037505 -0300,
0,0,0,0,,,,,,,,,,,,,,,,,5,0,5,0,8,0,8,0,,,,,,,,,20.13052775399956,,,,,,,,,,,,,,,,,,,,,,,,,,,,,,,,,20.080950676998327,20.080981735000023,20.08098807499846,20.081000364998545,,,,,,,,,,,,,,,,,635511,001,2024-03-21_18h35.42.337,Test1,2023.2.3,121.04004774497146,2024-03-21 18h35.56.037505 -0300,
0,0,0,0,,,,,,,,,,,,,,,,,5,0,5,0,9,0,9,0,,,,,,,,,20.13052775399956,,,,,,,,,,,,,,,,,,,,,,,,,,,,,,,,,20.08113892899928,20.081170485998882,20.081176906998735,20.081189020998863,,,,,,,,,,,,,,,,,635511,001,2024-03-21_18h35.42.337,Test1,2023.2.3,121.04004774497146,2024-03-21 18h35.56.037505 -0300,
0,0,0,0,,,,,,,,,,,,,,,,,5,0,5,0,,,,,,,,,,,,,,,,,,,,,,,,,,,,,,,,,,,,,,,,,,,,,,,,,,,,,,,,,,,,,,,,,,635511,001,2024-03-21_18h35.42.337,Test1,2023.2.3,121.04004774497146,2024-03-21 18h35.56.037505 -0300,
0,0,0,0,,,,,,,,,,,,,,,,,6,0,6,0,0,0,0,0,,,,,,,,,20.13052775399956,,,,,,,,,,,,,,,,,,,,,,,,,,,,,,,,,20.08174512899859,20.081780967999293,20.081788091998533,20.081801303998873,,,,,,,,,,,,,,,,,635511,001,2024-03-21_18h35.42.337,Test1,2023.2.3,121.04004774497146,2024-03-21 18h35.56.037505 -0300,
0,0,0,0,,,,,,,,,,,,,,,,,6,0,6,0,1,0,1,0,,,,,,,,,20.13052775399956,,,,,,,,,,,,,,,,,,,,,,,,,,,,,,,,,20.081942930999503,20.081975336999676,20.081981763998556,20.081994463998853,,,,,,,,,,,,,,,,,635511,001,2024-03-21_18h35.42.337,Test1,2023.2.3,121.04004774497146,2024-03-21 18h35.56.037505 -0300,
0,0,0,0,,,,,,,,,,,,,,,,,6,0,6,0,2,0,2,0,,,,,,,,,20.13052775399956,,,,,,,,,,,,,,,,,,,,,,,,,,,,,,,,,20.082136697999886,20.082168278999234,20.082174656999996,20.082186901998284,,,,,,,,,,,,,,,,,635511,001,2024-03-21_18h35.42.337,Test1,2023.2.3,121.04004774497146,2024-03-21 18h35.56.037505 -0300,
0,0,0,0,,,,,,,,,,,,,,,,,6,0,6,0,3,0,3,0,,,,,,,,,20.13052775399956,,,,,,,,,,,,,,,,,,,,,,,,,,,,,,,,,20.082329626999126,20.082360581998728,20.08236664299875,20.082378699999026,,,,,,,,,,,,,,,,,635511,001,2024-03-21_18h35.42.337,Test1,2023.2.3,121.04004774497146,2024-03-21 18h35.56.037505 -0300,
0,0,0,0,,,,,,,,,,,,,,,,,6,0,6,0,4,0,4,0,,,,,,,,,20.13052775399956,,,,,,,,,,,,,,,,,,,,,,,,,,,,,,,,,20.082512686998598,20.082544461998623,20.082550774999618,20.08256860899928,,,,,,,,,,,,,,,,,635511,001,2024-03-21_18h35.42.337,Test1,2023.2.3,121.04004774497146,2024-03-21 18h35.56.037505 -0300,
0,0,0,0,,,,,,,,,,,,,,,,,6,0,6,0,5,0,5,0,,,,,,,,,20.13052775399956,,,,,,,,,,,,,,,,,,,,,,,,,,,,,,,,,20.082707276998917,20.082738658999006,20.08274490199983,20.08275745299943,,,,,,,,,,,,,,,,,635511,001,2024-03-21_18h35.42.337,Test1,2023.2.3,121.04004774497146,2024-03-21 18h35.56.037505 -0300,
0,0,0,0,,,,,,,,,,,,,,,,,6,0,6,0,6,0,6,0,,,,,,,,,20.13052775399956,,,,,,,,,,,,,,,,,,,,,,,,,,,,,,,,,20.08290743699945,20.082939057998374,20.082945299998755,20.082957545999307,,,,,,,,,,,,,,,,,635511,001,2024-03-21_18h35.42.337,Test1,2023.2.3,121.04004774497146,2024-03-21 18h35.56.037505 -0300,
0,0,0,0,,,,,,,,,,,,,,,,,6,0,6,0,7,0,7,0,,,,,,,,,20.13052775399956,,,,,,,,,,,,,,,,,,,,,,,,,,,,,,,,,20.083090669999365,20.083121481999115,20.083127607998904,20.08313982299842,,,,,,,,,,,,,,,,,635511,001,2024-03-21_18h35.42.337,Test1,2023.2.3,121.04004774497146,2024-03-21 18h35.56.037505 -0300,
0,0,0,0,,,,,,,,,,,,,,,,,6,0,6,0,8,0,8,0,,,,,,,,,20.13052775399956,,,,,,,,,,,,,,,,,,,,,,,,,,,,,,,,,20.083277465999345,20.083308641998883,20.083314736999455,20.083326861999012,,,,,,,,,,,,,,,,,635511,001,2024-03-21_18h35.42.337,Test1,2023.2.3,121.04004774497146,2024-03-21 18h35.56.037505 -0300,
0,0,0,0,,,,,,,,,,,,,,,,,6,0,6,0,9,0,9,0,,,,,,,,,20.13052775399956,,,,,,,,,,,,,,,,,,,,,,,,,,,,,,,,,20.08346703999996,20.0834976189999,20.083503754998674,20.083515941998485,,,,,,,,,,,,,,,,,635511,001,2024-03-21_18h35.42.337,Test1,2023.2.3,121.04004774497146,2024-03-21 18h35.56.037505 -0300,
0,0,0,0,,,,,,,,,,,,,,,,,6,0,6,0,,,,,,,,,,,,,,,,,,,,,,,,,,,,,,,,,,,,,,,,,,,,,,,,,,,,,,,,,,,,,,,,,,635511,001,2024-03-21_18h35.42.337,Test1,2023.2.3,121.04004774497146,2024-03-21 18h35.56.037505 -0300,
0,0,0,0,,,,,,,,,,,,,,,,,7,0,7,0,0,0,0,0,,,,,,,,,20.13052775399956,,,,,,,,,,,,,,,,,,,,,,,,,,,,,,,,,20.084060643999692,20.0840996479983,20.084106612999676,20.08411975299896,,,,,,,,,,,,,,,,,635511,001,2024-03-21_18h35.42.337,Test1,2023.2.3,121.04004774497146,2024-03-21 18h35.56.037505 -0300,
0,0,0,0,,,,,,,,,,,,,,,,,7,0,7,0,1,0,1,0,,,,,,,,,20.13052775399956,,,,,,,,,,,,,,,,,,,,,,,,,,,,,,,,,20.084264948000055,20.084297241999593,20.08430358699843,20.084316011998453,,,,,,,,,,,,,,,,,635511,001,2024-03-21_18h35.42.337,Test1,2023.2.3,121.04004774497146,2024-03-21 18h35.56.037505 -0300,
0,0,0,0,,,,,,,,,,,,,,,,,7,0,7,0,2,0,2,0,,,,,,,,,20.13052775399956,,,,,,,,,,,,,,,,,,,,,,,,,,,,,,,,,20.084456894999676,20.08448838699951,20.084494602999257,20.084507101999407,,,,,,,,,,,,,,,,,635511,001,2024-03-21_18h35.42.337,Test1,2023.2.3,121.04004774497146,2024-03-21 18h35.56.037505 -0300,
0,0,0,0,,,,,,,,,,,,,,,,,7,0,7,0,3,0,3,0,,,,,,,,,20.13052775399956,,,,,,,,,,,,,,,,,,,,,,,,,,,,,,,,,20.084647449999466,20.084678878998602,20.084685136998814,20.084701561998372,,,,,,,,,,,,,,,,,635511,001,2024-03-21_18h35.42.337,Test1,2023.2.3,121.04004774497146,2024-03-21 18h35.56.037505 -0300,
0,0,0,0,,,,,,,,,,,,,,,,,7,0,7,0,4,0,4,0,,,,,,,,,20.13052775399956,,,,,,,,,,,,,,,,,,,,,,,,,,,,,,,,,20.084840756999256,20.08487219199924,20.084878396999557,20.084890703999918,,,,,,,,,,,,,,,,,635511,001,2024-03-21_18h35.42.337,Test1,2023.2.3,121.04004774497146,2024-03-21 18h35.56.037505 -0300,
0,0,0,0,,,,,,,,,,,,,,,,,7,0,7,0,5,0,5,0,,,,,,,,,20.13052775399956,,,,,,,,,,,,,,,,,,,,,,,,,,,,,,,,,20.085028446999786,20.085059733999515,20.085065911998754,20.085078125999644,,,,,,,,,,,,,,,,,635511,001,2024-03-21_18h35.42.337,Test1,2023.2.3,121.04004774497146,2024-03-21 18h35.56.037505 -0300,
0,0,0,0,,,,,,,,,,,,,,,,,7,0,7,0,6,0,6,0,,,,,,,,,20.13052775399956,,,,,,,,,,,,,,,,,,,,,,,,,,,,,,,,,20.085216446999766,20.0852473369996,20.08525348999865,20.085265874999095,,,,,,,,,,,,,,,,,635511,001,2024-03-21_18h35.42.337,Test1,2023.2.3,121.04004774497146,2024-03-21 18h35.56.037505 -0300,
0,0,0,0,,,,,,,,,,,,,,,,,7,0,7,0,7,0,7,0,,,,,,,,,20.13052775399956,,,,,,,,,,,,,,,,,,,,,,,,,,,,,,,,,20.085407436999958,20.085439281998333,20.085445456999878,20.085461053999097,,,,,,,,,,,,,,,,,635511,001,2024-03-21_18h35.42.337,Test1,2023.2.3,121.04004774497146,2024-03-21 18h35.56.037505 -0300,
0,0,0,0,,,,,,,,,,,,,,,,,7,0,7,0,8,0,8,0,,,,,,,,,20.13052775399956,,,,,,,,,,,,,,,,,,,,,,,,,,,,,,,,,20.085602247998395,20.085633827999118,20.08564004699838,20.08565237199946,,,,,,,,,,,,,,,,,635511,001,2024-03-21_18h35.42.337,Test1,2023.2.3,121.04004774497146,2024-03-21 18h35.56.037505 -0300,
0,0,0,0,,,,,,,,,,,,,,,,,7,0,7,0,9,0,9,0,,,,,,,,,20.13052775399956,,,,,,,,,,,,,,,,,,,,,,,,,,,,,,,,,20.085815515998547,20.08584671099925,20.08585291399868,20.08586581399868,,,,,,,,,,,,,,,,,635511,001,2024-03-21_18h35.42.337,Test1,2023.2.3,121.04004774497146,2024-03-21 18h35.56.037505 -0300,
0,0,0,0,,,,,,,,,,,,,,,,,7,0,7,0,,,,,,,,,,,,,,,,,,,,,,,,,,,,,,,,,,,,,,,,,,,,,,,,,,,,,,,,,,,,,,,,,,635511,001,2024-03-21_18h35.42.337,Test1,2023.2.3,121.04004774497146,2024-03-21 18h35.56.037505 -0300,
0,0,0,0,,,,,,,,,,,,,,,,,8,0,8,0,0,0,0,0,,,,,,,,,20.13052775399956,,,,,,,,,,,,,,,,,,,,,,,,,,,,,,,,,20.086416176998682,20.08645230199909,20.086459331998412,20.086472596998647,,,,,,,,,,,,,,,,,635511,001,2024-03-21_18h35.42.337,Test1,2023.2.3,121.04004774497146,2024-03-21 18h35.56.037505 -0300,
0,0,0,0,,,,,,,,,,,,,,,,,8,0,8,0,1,0,1,0,,,,,,,,,20.13052775399956,,,,,,,,,,,,,,,,,,,,,,,,,,,,,,,,,20.086617330998706,20.086649756998668,20.086656128998584,20.086668951998945,,,,,,,,,,,,,,,,,635511,001,2024-03-21_18h35.42.337,Test1,2023.2.3,121.04004774497146,2024-03-21 18h35.56.037505 -0300,
0,0,0,0,,,,,,,,,,,,,,,,,8,0,8,0,2,0,2,0,,,,,,,,,20.13052775399956,,,,,,,,,,,,,,,,,,,,,,,,,,,,,,,,,20.086807512998348,20.086842599999727,20.086849191999136,20.0868623009992,,,,,,,,,,,,,,,,,635511,001,2024-03-21_18h35.42.337,Test1,2023.2.3,121.04004774497146,2024-03-21 18h35.56.037505 -0300,
0,0,0,0,,,,,,,,,,,,,,,,,8,0,8,0,3,0,3,0,,,,,,,,,20.13052775399956,,,,,,,,,,,,,,,,,,,,,,,,,,,,,,,,,20.087003181999535,20.087035333999665,20.087041688999307,20.087057742999605,,,,,,,,,,,,,,,,,635511,001,2024-03-21_18h35.42.337,Test1,2023.2.3,121.04004774497146,2024-03-21 18h35.56.037505 -0300,
0,0,0,0,,,,,,,,,,,,,,,,,8,0,8,0,4,0,4,0,,,,,,,,,20.13052775399956,,,,,,,,,,,,,,,,,,,,,,,,,,,,,,,,,20.087199263000002,20.08723052699861,20.087236783998378,20.08724894199986,,,,,,,,,,,,,,,,,635511,001,2024-03-21_18h35.42.337,Test1,2023.2.3,121.04004774497146,2024-03-21 18h35.56.037505 -0300,
0,0,0,0,,,,,,,,,,,,,,,,,8,0,8,0,5,0,5,0,,,,,,,,,20.13052775399956,,,,,,,,,,,,,,,,,,,,,,,,,,,,,,,,,20.087383882999347,20.087415365998822,20.08742158199857,20.087434127999586,,,,,,,,,,,,,,,,,635511,001,2024-03-21_18h35.42.337,Test1,2023.2.3,121.04004774497146,2024-03-21 18h35.56.037505 -0300,
0,0,0,0,,,,,,,,,,,,,,,,,8,0,8,0,6,0,6,0,,,,,,,,,20.13052775399956,,,,,,,,,,,,,,,,,,,,,,,,,,,,,,,,,20.08757265999884,20.087609918999078,20.087616508999417,20.087629341998763,,,,,,,,,,,,,,,,,635511,001,2024-03-21_18h35.42.337,Test1,2023.2.3,121.04004774497146,2024-03-21 18h35.56.037505 -0300,
0,0,0,0,,,,,,,,,,,,,,,,,8,0,8,0,7,0,7,0,,,,,,,,,20.13052775399956,,,,,,,,,,,,,,,,,,,,,,,,,,,,,,,,,20.08777081199878,20.08780204699906,20.087808330999906,20.087820527000076,,,,,,,,,,,,,,,,,635511,001,2024-03-21_18h35.42.337,Test1,2023.2.3,121.04004774497146,2024-03-21 18h35.56.037505 -0300,
0,0,0,0,,,,,,,,,,,,,,,,,8,0,8,0,8,0,8,0,,,,,,,,,20.13052775399956,,,,,,,,,,,,,,,,,,,,,,,,,,,,,,,,,20.087953705999098,20.08798837699942,20.087994716999674,20.08800702699955,,,,,,,,,,,,,,,,,635511,001,2024-03-21_18h35.42.337,Test1,2023.2.3,121.04004774497146,2024-03-21 18h35.56.037505 -0300,
0,0,0,0,,,,,,,,,,,,,,,,,8,0,8,0,9,0,9,0,,,,,,,,,20.13052775399956,,,,,,,,,,,,,,,,,,,,,,,,,,,,,,,,,20.088145486999565,20.088177334999273,20.088183452999147,20.088198366998768,,,,,,,,,,,,,,,,,635511,001,2024-03-21_18h35.42.337,Test1,2023.2.3,121.04004774497146,2024-03-21 18h35.56.037505 -0300,
0,0,0,0,,,,,,,,,,,,,,,,,8,0,8,0,,,,,,,,,,,,,,,,,,,,,,,,,,,,,,,,,,,,,,,,,,,,,,,,,,,,,,,,,,,,,,,,,,635511,001,2024-03-21_18h35.42.337,Test1,2023.2.3,121.04004774497146,2024-03-21 18h35.56.037505 -0300,
0,0,0,0,,,,,,,,,,,,,,,,,9,0,9,0,0,0,0,0,,,,,,,,,20.13052775399956,,,,,,,,,,,,,,,,,,,,,,,,,,,,,,,,,20.08874431000004,20.08878022999852,20.088787173999663,20.088800513000024,,,,,,,,,,,,,,,,,635511,001,2024-03-21_18h35.42.337,Test1,2023.2.3,121.04004774497146,2024-03-21 18h35.56.037505 -0300,
0,0,0,0,,,,,,,,,,,,,,,,,9,0,9,0,1,0,1,0,,,,,,,,,20.13052775399956,,,,,,,,,,,,,,,,,,,,,,,,,,,,,,,,,20.08894700699966,20.088979627998924,20.08898608399977,20.088998950999667,,,,,,,,,,,,,,,,,635511,001,2024-03-21_18h35.42.337,Test1,2023.2.3,121.04004774497146,2024-03-21 18h35.56.037505 -0300,
0,0,0,0,,,,,,,,,,,,,,,,,9,0,9,0,2,0,2,0,,,,,,,,,20.13052775399956,,,,,,,,,,,,,,,,,,,,,,,,,,,,,,,,,20.089144657998986,20.089176222998503,20.089182494999477,20.089195131999077,,,,,,,,,,,,,,,,,635511,001,2024-03-21_18h35.42.337,Test1,2023.2.3,121.04004774497146,2024-03-21 18h35.56.037505 -0300,
0,0,0,0,,,,,,,,,,,,,,,,,9,0,9,0,3,0,3,0,,,,,,,,,20.13052775399956,,,,,,,,,,,,,,,,,,,,,,,,,,,,,,,,,20.0893350009992,20.089366336998864,20.089372521999394,20.089384717999565,,,,,,,,,,,,,,,,,635511,001,2024-03-21_18h35.42.337,Test1,2023.2.3,121.04004774497146,2024-03-21 18h35.56.037505 -0300,
0,0,0,0,,,,,,,,,,,,,,,,,9,0,9,0,4,0,4,0,,,,,,,,,20.13052775399956,,,,,,,,,,,,,,,,,,,,,,,,,,,,,,,,,20.089526482999645,20.089557831999628,20.089564095998867,20.089576349999334,,,,,,,,,,,,,,,,,635511,001,2024-03-21_18h35.42.337,Test1,2023.2.3,121.04004774497146,2024-03-21 18h35.56.037505 -0300,
0,0,0,0,,,,,,,,,,,,,,,,,9,0,9,0,5,0,5,0,,,,,,,,,20.13052775399956,,,,,,,,,,,,,,,,,,,,,,,,,,,,,,,,,20.089713998999287,20.089744911998423,20.089751246998276,20.089763541998764,,,,,,,,,,,,,,,,,635511,001,2024-03-21_18h35.42.337,Test1,2023.2.3,121.04004774497146,2024-03-21 18h35.56.037505 -0300,
0,0,0,0,,,,,,,,,,,,,,,,,9,0,9,0,6,0,6,0,,,,,,,,,20.13052775399956,,,,,,,,,,,,,,,,,,,,,,,,,,,,,,,,,20.0899007479984,20.08993193399874,20.089938108998467,20.0899504229983,,,,,,,,,,,,,,,,,635511,001,2024-03-21_18h35.42.337,Test1,2023.2.3,121.04004774497146,2024-03-21 18h35.56.037505 -0300,
0,0,0,0,,,,,,,,,,,,,,,,,9,0,9,0,7,0,7,0,,,,,,,,,20.13052775399956,,,,,,,,,,,,,,,,,,,,,,,,,,,,,,,,,20.090089945999352,20.090120909999314,20.090126979999695,20.090139152998745,,,,,,,,,,,,,,,,,635511,001,2024-03-21_18h35.42.337,Test1,2023.2.3,121.04004774497146,2024-03-21 18h35.56.037505 -0300,
0,0,0,0,,,,,,,,,,,,,,,,,9,0,9,0,8,0,8,0,,,,,,,,,20.13052775399956,,,,,,,,,,,,,,,,,,,,,,,,,,,,,,,,,20.090270853999755,20.090301522999653,20.09030761699978,20.09032001199921,,,,,,,,,,,,,,,,,635511,001,2024-03-21_18h35.42.337,Test1,2023.2.3,121.04004774497146,2024-03-21 18h35.56.037505 -0300,
0,0,0,0,,,,,,,,,,,,,,,,,9,0,9,0,9,0,9,0,,,,,,,,,20.13052775399956,,,,,,,,,,,,,,,,,,,,,,,,,,,,,,,,,20.090452671000094,20.090486916998998,20.09049329699883,20.090505910999127,,,,,,,,,,,,,,,,,635511,001,2024-03-21_18h35.42.337,Test1,2023.2.3,121.04004774497146,2024-03-21 18h35.56.037505 -0300,
0,0,0,0,,,,,,,,,,,,,,,,,9,0,9,0,,,,,,,,,,,,,,,,,,,,,,,,,,,,,,,,,,,,,,,,,,,,,,,,,,,,,,,,,,,,,,,,,,635511,001,2024-03-21_18h35.42.337,Test1,2023.2.3,121.04004774497146,2024-03-21 18h35.56.037505 -0300,
0,0,0,0,,,,,,,,,,,,,,,,,,,,,,,,,0,0,0,0,0,0,0,0,20.13052775399956,,,,,,,,,,,,,,,,,,,,,,,,,,,,,,,,,,,,,20.091215062999254,20.091277207999156,20.09128437199979,20.0930600949996,,,,,,,,,,,,,635511,001,2024-03-21_18h35.42.337,Test1,2023.2.3,121.04004774497146,2024-03-21 18h35.56.037505 -0300,
0,0,0,0,,,,,,,,,,,,,,,,,,,,,,,,,0,0,0,0,1,0,1,0,20.13052775399956,,,,,,,,,,,,,,,,,,,,,,,,,,,,,,,,,,,,,20.093228863999684,20.093292633999226,20.0932996979991,20.093319586998405,,,,,,,,,,,,,635511,001,2024-03-21_18h35.42.337,Test1,2023.2.3,121.04004774497146,2024-03-21 18h35.56.037505 -0300,
0,0,0,0,,,,,,,,,,,,,,,,,,,,,,,,,0,0,0,0,2,0,2,0,20.13052775399956,,,,,,,,,,,,,,,,,,,,,,,,,,,,,,,,,,,,,20.093470963000073,20.093523647999973,20.093530321999424,20.093546996999066,,,,,,,,,,,,,635511,001,2024-03-21_18h35.42.337,Test1,2023.2.3,121.04004774497146,2024-03-21 18h35.56.037505 -0300,
0,0,0,0,,,,,,,,,,,,,,,,,,,,,,,,,0,0,0,0,3,0,3,0,20.13052775399956,,,,,,,,,,,,,,,,,,,,,,,,,,,,,,,,,,,,,20.093690899999274,20.093741380998836,20.093747723998604,20.093764106999515,,,,,,,,,,,,,635511,001,2024-03-21_18h35.42.337,Test1,2023.2.3,121.04004774497146,2024-03-21 18h35.56.037505 -0300,
0,0,0,0,,,,,,,,,,,,,,,,,,,,,,,,,0,0,0,0,4,0,4,0,20.13052775399956,,,,,,,,,,,,,,,,,,,,,,,,,,,,,,,,,,,,,20.093906443999003,20.093963041999814,20.093969552999624,20.09398629199859,,,,,,,,,,,,,635511,001,2024-03-21_18h35.42.337,Test1,2023.2.3,121.04004774497146,2024-03-21 18h35.56.037505 -0300,
0,0,0,0,,,,,,,,,,,,,,,,,,,,,,,,,0,0,0,0,5,0,5,0,20.13052775399956,,,,,,,,,,,,,,,,,,,,,,,,,,,,,,,,,,,,,20.094125562000045,20.09417867999946,20.094185202999142,20.09420172299906,,,,,,,,,,,,,635511,001,2024-03-21_18h35.42.337,Test1,2023.2.3,121.04004774497146,2024-03-21 18h35.56.037505 -0300,
0,0,0,0,,,,,,,,,,,,,,,,,,,,,,,,,0,0,0,0,6,0,6,0,20.13052775399956,,,,,,,,,,,,,,,,,,,,,,,,,,,,,,,,,,,,,20.094339197999943,20.094389785999738,20.094396151998808,20.094415004999973,,,,,,,,,,,,,635511,001,2024-03-21_18h35.42.337,Test1,2023.2.3,121.04004774497146,2024-03-21 18h35.56.037505 -0300,
0,0,0,0,,,,,,,,,,,,,,,,,,,,,,,,,0,0,0,0,7,0,7,0,20.13052775399956,,,,,,,,,,,,,,,,,,,,,,,,,,,,,,,,,,,,,20.094554266999694,20.094604348998473,20.094610628999362,20.09462690699911,,,,,,,,,,,,,635511,001,2024-03-21_18h35.42.337,Test1,2023.2.3,121.04004774497146,2024-03-21 18h35.56.037505 -0300,
0,0,0,0,,,,,,,,,,,,,,,,,,,,,,,,,0,0,0,0,8,0,8,0,20.13052775399956,,,,,,,,,,,,,,,,,,,,,,,,,,,,,,,,,,,,,20.094767601998683,20.094822694998584,20.094831074999092,20.094847649999792,,,,,,,,,,,,,635511,001,2024-03-21_18h35.42.337,Test1,2023.2.3,121.04004774497146,2024-03-21 18h35.56.037505 -0300,
0,0,0,0,,,,,,,,,,,,,,,,,,,,,,,,,0,0,0,0,9,0,9,0,20.13052775399956,,,,,,,,,,,,,,,,,,,,,,,,,,,,,,,,,,,,,20.09498688199892,20.09503378199952,20.095040071999392,20.095056275999013,,,,,,,,,,,,,635511,001,2024-03-21_18h35.42.337,Test1,2023.2.3,121.04004774497146,2024-03-21 18h35.56.037505 -0300,
0,0,0,0,,,,,,,,,,,,,,,,,,,,,,,,,0,0,0,0,,,,,,,,,,,,,,,,,,,,,,,,,,,,,,,,,,,,,,,,,,,,,,,,,,,,,,,,,,635511,001,2024-03-21_18h35.42.337,Test1,2023.2.3,121.04004774497146,2024-03-21 18h35.56.037505 -0300,
0,0,0,0,,,,,,,,,,,,,,,,,,,,,,,,,1,0,1,0,0,0,0,0,20.13052775399956,,,,,,,,,,,,,,,,,,,,,,,,,,,,,,,,,,,,,20.095557872999052,20.095610091999333,20.095617111999672,20.095634624998638,,,,,,,,,,,,,635511,001,2024-03-21_18h35.42.337,Test1,2023.2.3,121.04004774497146,2024-03-21 18h35.56.037505 -0300,
0,0,0,0,,,,,,,,,,,,,,,,,,,,,,,,,1,0,1,0,1,0,1,0,20.13052775399956,,,,,,,,,,,,,,,,,,,,,,,,,,,,,,,,,,,,,20.095782895999946,20.095830591999402,20.095837010998366,20.095853721999447,,,,,,,,,,,,,635511,001,2024-03-21_18h35.42.337,Test1,2023.2.3,121.04004774497146,2024-03-21 18h35.56.037505 -0300,
0,0,0,0,,,,,,,,,,,,,,,,,,,,,,,,,1,0,1,0,2,0,2,0,20.13052775399956,,,,,,,,,,,,,,,,,,,,,,,,,,,,,,,,,,,,,20.095995149999,20.096045663998666,20.096052110999153,20.09606844299924,,,,,,,,,,,,,635511,001,2024-03-21_18h35.42.337,Test1,2023.2.3,121.04004774497146,2024-03-21 18h35.56.037505 -0300,
0,0,0,0,,,,,,,,,,,,,,,,,,,,,,,,,1,0,1,0,3,0,3,0,20.13052775399956,,,,,,,,,,,,,,,,,,,,,,,,,,,,,,,,,,,,,20.096209821998855,20.0962602719992,20.09626670599937,20.096283322998715,,,,,,,,,,,,,635511,001,2024-03-21_18h35.42.337,Test1,2023.2.3,121.04004774497146,2024-03-21 18h35.56.037505 -0300,
