return_to_homepage.thisRepN,return_to_homepage.thisTrialN,return_to_homepage.thisN,return_to_homepage.thisIndex,trials_1.thisRepN,trials_1.thisTrialN,trials_1.thisN,trials_1.thisIndex,repetition_1.thisRepN,repetition_1.thisTrialN,repetition_1.thisN,repetition_1.thisIndex,trials_2.thisRepN,trials_2.thisTrialN,trials_2.thisN,trials_2.thisIndex,repetition_2.thisRepN,repetition_2.thisTrialN,repetition_2.thisN,repetition_2.thisIndex,trials_3.thisRepN,trials_3.thisTrialN,trials_3.thisN,trials_3.thisIndex,repetition_3.thisRepN,repetition_3.thisTrialN,repetition_3.thisN,repetition_3.thisIndex,trials_4.thisRepN,trials_4.thisTrialN,trials_4.thisN,trials_4.thisIndex,repetition_4.thisRepN,repetition_4.thisTrialN,repetition_4.thisN,repetition_4.thisIndex,thisRow.t,notes,WelcomeScreen.started,welcome_message.started,caution_sign.started,WelcomeScreen.stopped,PickTest.started,button_t1.started,button_t2.started,button_t3.started,button_t4.started,text.started,PickTest.stopped,button_t1.numClicks,button_t1.timesOn,button_t1.timesOff,button_t2.numClicks,button_t2.timesOn,button_t2.timesOff,button_t3.numClicks,button_t3.timesOn,button_t3.timesOff,button_t4.numClicks,button_t4.timesOn,button_t4.timesOff,test_1.started,test_1.stopped,blank1s_t1.started,blank1s_t1.stopped,test_2.started,obj1_t2.started,obj2_t2.started,obj3_t2.started,test_2_mess.started,obj1_t2.stopped,obj2_t2.stopped,obj3_t2.stopped,test_2_mess.stopped,test_2.stopped,blank1s_t2.started,blank_screen_t2_mess.started,blank1s_t2.stopped,test_3.started,test_3.stopped,blank1s_t3.started,blank1s_t3.stopped,test_4.started,test_4.stopped,blank1s_t4.started,blank1s_t4.stopped,reset_buttons.started,reset_buttons.stopped,obj1_t4.started,obj2_t4.started,obj3_t4.started,obj4_t4.started,obj5_t4.started,obj6_t4.started,obj7_t4.started,obj8_t4.started,obj9_t4.started,test_4_mess.started,blank_screen_t4_mess.started,blank_screen_t4_mess.stopped,obj1_t4.stopped,obj2_t4.stopped,obj3_t4.stopped,obj4_t4.stopped,obj5_t4.stopped,obj6_t4.stopped,obj7_t4.stopped,obj8_t4.stopped,obj9_t4.stopped,test_4_mess.stopped,participant,session,date,expName,psychopyVersion,frameRate,expStart,
0,0,0,0,0,0,0,0,0,0,0,0,,,,,,,,,,,,,,,,,,,,,,,,,20.04636115300127,,0.013733519001107197,0.05410893900079827,0.05410893900079827,10.001090002000637,10.002421871000479,10.044642941000347,10.044642941000347,10.044642941000347,10.044642941000347,10.044642941000347,20.01247214900104,0,,,1,[4.244348824000554],[4.413210964999962],0,,,0,,,20.01526851500057,20.01531625000098,20.015326770000684,20.015345724001236,,,,,,,,,,,,,,,,,,,,,,,,,,,,,,,,,,,,,,,,,,,,,,870145,001,2024-03-21_18h53.55.186,Test1,2023.2.3,None,2024-03-21 18h54.02.735182 -0300,
0,0,0,0,0,0,0,0,1,0,1,0,,,,,,,,,,,,,,,,,,,,,,,,,20.04636115300127,,,,,,,,,,,,,,,,,,,,,,,,,20.015542049000942,20.0155710300005,20.01557939000122,20.015594970000166,,,,,,,,,,,,,,,,,,,,,,,,,,,,,,,,,,,,,,,,,,,,,,870145,001,2024-03-21_18h53.55.186,Test1,2023.2.3,None,2024-03-21 18h54.02.735182 -0300,
0,0,0,0,0,0,0,0,2,0,2,0,,,,,,,,,,,,,,,,,,,,,,,,,20.04636115300127,,,,,,,,,,,,,,,,,,,,,,,,,20.015774589001012,20.015801593001015,20.015809399001228,20.015873383001235,,,,,,,,,,,,,,,,,,,,,,,,,,,,,,,,,,,,,,,,,,,,,,870145,001,2024-03-21_18h53.55.186,Test1,2023.2.3,None,2024-03-21 18h54.02.735182 -0300,
0,0,0,0,0,0,0,0,3,0,3,0,,,,,,,,,,,,,,,,,,,,,,,,,20.04636115300127,,,,,,,,,,,,,,,,,,,,,,,,,20.01613923200057,20.016172089000975,20.01618074900034,20.016197415001443,,,,,,,,,,,,,,,,,,,,,,,,,,,,,,,,,,,,,,,,,,,,,,870145,001,2024-03-21_18h53.55.186,Test1,2023.2.3,None,2024-03-21 18h54.02.735182 -0300,
0,0,0,0,0,0,0,0,4,0,4,0,,,,,,,,,,,,,,,,,,,,,,,,,20.04636115300127,,,,,,,,,,,,,,,,,,,,,,,,,20.016388306001318,20.01641612000094,20.01642422400073,20.016439834000266,,,,,,,,,,,,,,,,,,,,,,,,,,,,,,,,,,,,,,,,,,,,,,870145,001,2024-03-21_18h53.55.186,Test1,2023.2.3,None,2024-03-21 18h54.02.735182 -0300,
0,0,0,0,0,0,0,0,5,0,5,0,,,,,,,,,,,,,,,,,,,,,,,,,20.04636115300127,,,,,,,,,,,,,,,,,,,,,,,,,20.01662475900048,20.016652474001603,20.01666057500006,20.01667620599983,,,,,,,,,,,,,,,,,,,,,,,,,,,,,,,,,,,,,,,,,,,,,,870145,001,2024-03-21_18h53.55.186,Test1,2023.2.3,None,2024-03-21 18h54.02.735182 -0300,
0,0,0,0,0,0,0,0,6,0,6,0,,,,,,,,,,,,,,,,,,,,,,,,,20.04636115300127,,,,,,,,,,,,,,,,,,,,,,,,,20.016856375001225,20.016883584001334,20.016891381001187,20.016906606000703,,,,,,,,,,,,,,,,,,,,,,,,,,,,,,,,,,,,,,,,,,,,,,870145,001,2024-03-21_18h53.55.186,Test1,2023.2.3,None,2024-03-21 18h54.02.735182 -0300,
0,0,0,0,0,0,0,0,7,0,7,0,,,,,,,,,,,,,,,,,,,,,,,,,20.04636115300127,,,,,,,,,,,,,,,,,,,,,,,,,20.017084430000978,20.01711102900117,20.017118923000453,20.01713413500147,,,,,,,,,,,,,,,,,,,,,,,,,,,,,,,,,,,,,,,,,,,,,,870145,001,2024-03-21_18h53.55.186,Test1,2023.2.3,None,2024-03-21 18h54.02.735182 -0300,
0,0,0,0,0,0,0,0,8,0,8,0,,,,,,,,,,,,,,,,,,,,,,,,,20.04636115300127,,,,,,,,,,,,,,,,,,,,,,,,,20.01730959500128,20.01733638800033,20.01734424999995,20.017358950000926,,,,,,,,,,,,,,,,,,,,,,,,,,,,,,,,,,,,,,,,,,,,,,870145,001,2024-03-21_18h53.55.186,Test1,2023.2.3,None,2024-03-21 18h54.02.735182 -0300,
0,0,0,0,0,0,0,0,9,0,9,0,,,,,,,,,,,,,,,,,,,,,,,,,20.04636115300127,,,,,,,,,,,,,,,,,,,,,,,,,20.01753256700067,20.017558130000907,20.017565849000675,20.01758057400002,,,,,,,,,,,,,,,,,,,,,,,,,,,,,,,,,,,,,,,,,,,,,,870145,001,2024-03-21_18h53.55.186,Test1,2023.2.3,None,2024-03-21 18h54.02.735182 -0300,
0,0,0,0,0,0,0,0,,,,,,,,,,,,,,,,,,,,,,,,,,,,,,,,,,,,,,,,,,,,,,,,,,,,,,,,,,,,,,,,,,,,,,,,,,,,,,,,,,,,,,,,,,,,,,,,,,,,,,,870145,001,2024-03-21_18h53.55.186,Test1,2023.2.3,None,2024-03-21 18h54.02.735182 -0300,
0,0,0,0,1,0,1,0,0,0,0,0,,,,,,,,,,,,,,,,,,,,,,,,,20.04636115300127,,,,,,,,,,,,,,,,,,,,,,,,,20.018400282000584,20.018437093000102,20.018446264000886,20.018462522000846,,,,,,,,,,,,,,,,,,,,,,,,,,,,,,,,,,,,,,,,,,,,,,870145,001,2024-03-21_18h53.55.186,Test1,2023.2.3,None,2024-03-21 18h54.02.735182 -0300,
0,0,0,0,1,0,1,0,1,0,1,0,,,,,,,,,,,,,,,,,,,,,,,,,20.04636115300127,,,,,,,,,,,,,,,,,,,,,,,,,20.018648025001312,20.018676715000765,20.018684901000597,20.01870093600155,,,,,,,,,,,,,,,,,,,,,,,,,,,,,,,,,,,,,,,,,,,,,,870145,001,2024-03-21_18h53.55.186,Test1,2023.2.3,None,2024-03-21 18h54.02.735182 -0300,
0,0,0,0,1,0,1,0,2,0,2,0,,,,,,,,,,,,,,,,,,,,,,,,,20.04636115300127,,,,,,,,,,,,,,,,,,,,,,,,,20.018878721000874,20.018905345001258,20.01891323900054,20.01892849900105,,,,,,,,,,,,,,,,,,,,,,,,,,,,,,,,,,,,,,,,,,,,,,870145,001,2024-03-21_18h53.55.186,Test1,2023.2.3,None,2024-03-21 18h54.02.735182 -0300,
0,0,0,0,1,0,1,0,3,0,3,0,,,,,,,,,,,,,,,,,,,,,,,,,20.04636115300127,,,,,,,,,,,,,,,,,,,,,,,,,20.019105395000224,20.01913140600118,20.01913907600101,20.019154102001266,,,,,,,,,,,,,,,,,,,,,,,,,,,,,,,,,,,,,,,,,,,,,,870145,001,2024-03-21_18h53.55.186,Test1,2023.2.3,None,2024-03-21 18h54.02.735182 -0300,
0,0,0,0,1,0,1,0,4,0,4,0,,,,,,,,,,,,,,,,,,,,,,,,,20.04636115300127,,,,,,,,,,,,,,,,,,,,,,,,,20.019330132001414,20.019355546000952,20.019363247,20.019378401000722,,,,,,,,,,,,,,,,,,,,,,,,,,,,,,,,,,,,,,,,,,,,,,870145,001,2024-03-21_18h53.55.186,Test1,2023.2.3,None,2024-03-21 18h54.02.735182 -0300,
0,0,0,0,1,0,1,0,5,0,5,0,,,,,,,,,,,,,,,,,,,,,,,,,20.04636115300127,,,,,,,,,,,,,,,,,,,,,,,,,20.019650913000078,20.019680457000504,20.019688252001288,20.019703298001332,,,,,,,,,,,,,,,,,,,,,,,,,,,,,,,,,,,,,,,,,,,,,,870145,001,2024-03-21_18h53.55.186,Test1,2023.2.3,None,2024-03-21 18h54.02.735182 -0300,
0,0,0,0,1,0,1,0,6,0,6,0,,,,,,,,,,,,,,,,,,,,,,,,,20.04636115300127,,,,,,,,,,,,,,,,,,,,,,,,,20.019869211000696,20.01989443000093,20.01990132300125,20.019914880000215,,,,,,,,,,,,,,,,,,,,,,,,,,,,,,,,,,,,,,,,,,,,,,870145,001,2024-03-21_18h53.55.186,Test1,2023.2.3,None,2024-03-21 18h54.02.735182 -0300,
0,0,0,0,1,0,1,0,7,0,7,0,,,,,,,,,,,,,,,,,,,,,,,,,20.04636115300127,,,,,,,,,,,,,,,,,,,,,,,,,20.02007349000087,20.020097910000914,20.020104881001316,20.02011856900026,,,,,,,,,,,,,,,,,,,,,,,,,,,,,,,,,,,,,,,,,,,,,,870145,001,2024-03-21_18h53.55.186,Test1,2023.2.3,None,2024-03-21 18h54.02.735182 -0300,
0,0,0,0,1,0,1,0,8,0,8,0,,,,,,,,,,,,,,,,,,,,,,,,,20.04636115300127,,,,,,,,,,,,,,,,,,,,,,,,,20.020275056000173,20.020299030000388,20.020306049000283,20.020319803001257,,,,,,,,,,,,,,,,,,,,,,,,,,,,,,,,,,,,,,,,,,,,,,870145,001,2024-03-21_18h53.55.186,Test1,2023.2.3,None,2024-03-21 18h54.02.735182 -0300,
0,0,0,0,1,0,1,0,9,0,9,0,,,,,,,,,,,,,,,,,,,,,,,,,20.04636115300127,,,,,,,,,,,,,,,,,,,,,,,,,20.020477277999817,20.020500805001575,20.02050790300018,20.020521189000647,,,,,,,,,,,,,,,,,,,,,,,,,,,,,,,,,,,,,,,,,,,,,,870145,001,2024-03-21_18h53.55.186,Test1,2023.2.3,None,2024-03-21 18h54.02.735182 -0300,
0,0,0,0,1,0,1,0,,,,,,,,,,,,,,,,,,,,,,,,,,,,,,,,,,,,,,,,,,,,,,,,,,,,,,,,,,,,,,,,,,,,,,,,,,,,,,,,,,,,,,,,,,,,,,,,,,,,,,,870145,001,2024-03-21_18h53.55.186,Test1,2023.2.3,None,2024-03-21 18h54.02.735182 -0300,
0,0,0,0,2,0,2,0,0,0,0,0,,,,,,,,,,,,,,,,,,,,,,,,,20.04636115300127,,,,,,,,,,,,,,,,,,,,,,,,,20.021105239000462,20.021133941001608,20.021141390001503,20.02115602500089,,,,,,,,,,,,,,,,,,,,,,,,,,,,,,,,,,,,,,,,,,,,,,870145,001,2024-03-21_18h53.55.186,Test1,2023.2.3,None,2024-03-21 18h54.02.735182 -0300,
0,0,0,0,2,0,2,0,1,0,1,0,,,,,,,,,,,,,,,,,,,,,,,,,20.04636115300127,,,,,,,,,,,,,,,,,,,,,,,,,20.02131657300015,20.021340694000173,20.02134766400013,20.021361140001318,,,,,,,,,,,,,,,,,,,,,,,,,,,,,,,,,,,,,,,,,,,,,,870145,001,2024-03-21_18h53.55.186,Test1,2023.2.3,None,2024-03-21 18h54.02.735182 -0300,
0,0,0,0,2,0,2,0,2,0,2,0,,,,,,,,,,,,,,,,,,,,,,,,,20.04636115300127,,,,,,,,,,,,,,,,,,,,,,,,,20.021517549001146,20.02155174100153,20.02155867500005,20.021572116000243,,,,,,,,,,,,,,,,,,,,,,,,,,,,,,,,,,,,,,,,,,,,,,870145,001,2024-03-21_18h53.55.186,Test1,2023.2.3,None,2024-03-21 18h54.02.735182 -0300,
0,0,0,0,2,0,2,0,3,0,3,0,,,,,,,,,,,,,,,,,,,,,,,,,20.04636115300127,,,,,,,,,,,,,,,,,,,,,,,,,20.02173163900079,20.021755203000794,20.02176217499982,20.021780369001135,,,,,,,,,,,,,,,,,,,,,,,,,,,,,,,,,,,,,,,,,,,,,,870145,001,2024-03-21_18h53.55.186,Test1,2023.2.3,None,2024-03-21 18h54.02.735182 -0300,
0,0,0,0,2,0,2,0,4,0,4,0,,,,,,,,,,,,,,,,,,,,,,,,,20.04636115300127,,,,,,,,,,,,,,,,,,,,,,,,,20.021934944999884,20.021957868000754,20.02196450000156,20.02197746999991,,,,,,,,,,,,,,,,,,,,,,,,,,,,,,,,,,,,,,,,,,,,,,870145,001,2024-03-21_18h53.55.186,Test1,2023.2.3,None,2024-03-21 18h54.02.735182 -0300,
0,0,0,0,2,0,2,0,5,0,5,0,,,,,,,,,,,,,,,,,,,,,,,,,20.04636115300127,,,,,,,,,,,,,,,,,,,,,,,,,20.022129176000817,20.022151910001412,20.022158729001603,20.022175576001246,,,,,,,,,,,,,,,,,,,,,,,,,,,,,,,,,,,,,,,,,,,,,,870145,001,2024-03-21_18h53.55.186,Test1,2023.2.3,None,2024-03-21 18h54.02.735182 -0300,
0,0,0,0,2,0,2,0,6,0,6,0,,,,,,,,,,,,,,,,,,,,,,,,,20.04636115300127,,,,,,,,,,,,,,,,,,,,,,,,,20.022327256001518,20.022358135000104,20.02236488500057,20.022378003000995,,,,,,,,,,,,,,,,,,,,,,,,,,,,,,,,,,,,,,,,,,,,,,870145,001,2024-03-21_18h53.55.186,Test1,2023.2.3,None,2024-03-21 18h54.02.735182 -0300,
0,0,0,0,2,0,2,0,7,0,7,0,,,,,,,,,,,,,,,,,,,,,,,,,20.04636115300127,,,,,,,,,,,,,,,,,,,,,,,,,20.02253013600057,20.02255255000091,20.022559241000636,20.022571973000595,,,,,,,,,,,,,,,,,,,,,,,,,,,,,,,,,,,,,,,,,,,,,,870145,001,2024-03-21_18h53.55.186,Test1,2023.2.3,None,2024-03-21 18h54.02.735182 -0300,
0,0,0,0,2,0,2,0,8,0,8,0,,,,,,,,,,,,,,,,,,,,,,,,,20.04636115300127,,,,,,,,,,,,,,,,,,,,,,,,,20.02272128000004,20.022743604000425,20.02275028800068,20.022763465000025,,,,,,,,,,,,,,,,,,,,,,,,,,,,,,,,,,,,,,,,,,,,,,870145,001,2024-03-21_18h53.55.186,Test1,2023.2.3,None,2024-03-21 18h54.02.735182 -0300,
0,0,0,0,2,0,2,0,9,0,9,0,,,,,,,,,,,,,,,,,,,,,,,,,20.04636115300127,,,,,,,,,,,,,,,,,,,,,,,,,20.022918008000488,20.022941840001295,20.022948665000513,20.022961803000726,,,,,,,,,,,,,,,,,,,,,,,,,,,,,,,,,,,,,,,,,,,,,,870145,001,2024-03-21_18h53.55.186,Test1,2023.2.3,None,2024-03-21 18h54.02.735182 -0300,
0,0,0,0,2,0,2,0,,,,,,,,,,,,,,,,,,,,,,,,,,,,,,,,,,,,,,,,,,,,,,,,,,,,,,,,,,,,,,,,,,,,,,,,,,,,,,,,,,,,,,,,,,,,,,,,,,,,,,,870145,001,2024-03-21_18h53.55.186,Test1,2023.2.3,None,2024-03-21 18h54.02.735182 -0300,
0,0,0,0,3,0,3,0,0,0,0,0,,,,,,,,,,,,,,,,,,,,,,,,,20.04636115300127,,,,,,,,,,,,,,,,,,,,,,,,,20.023499096001615,20.023527441000624,20.02353484300147,20.02355455399993,,,,,,,,,,,,,,,,,,,,,,,,,,,,,,,,,,,,,,,,,,,,,,870145,001,2024-03-21_18h53.55.186,Test1,2023.2.3,None,2024-03-21 18h54.02.735182 -0300,
0,0,0,0,3,0,3,0,1,0,1,0,,,,,,,,,,,,,,,,,,,,,,,,,20.04636115300127,,,,,,,,,,,,,,,,,,,,,,,,,20.02372203900086,20.023746274000587,20.023753165000016,20.023766375001287,,,,,,,,,,,,,,,,,,,,,,,,,,,,,,,,,,,,,,,,,,,,,,870145,001,2024-03-21_18h53.55.186,Test1,2023.2.3,None,2024-03-21 18h54.02.735182 -0300,
0,0,0,0,3,0,3,0,2,0,2,0,,,,,,,,,,,,,,,,,,,,,,,,,20.04636115300127,,,,,,,,,,,,,,,,,,,,,,,,,20.023926599000333,20.023949803000505,20.02395655300097,20.023969779000254,,,,,,,,,,,,,,,,,,,,,,,,,,,,,,,,,,,,,,,,,,,,,,870145,001,2024-03-21_18h53.55.186,Test1,2023.2.3,None,2024-03-21 18h54.02.735182 -0300,
0,0,0,0,3,0,3,0,3,0,3,0,,,,,,,,,,,,,,,,,,,,,,,,,20.04636115300127,,,,,,,,,,,,,,,,,,,,,,,,,20.024127931001203,20.024150734001523,20.024157528001524,20.024170860000595,,,,,,,,,,,,,,,,,,,,,,,,,,,,,,,,,,,,,,,,,,,,,,870145,001,2024-03-21_18h53.55.186,Test1,2023.2.3,None,2024-03-21 18h54.02.735182 -0300,
0,0,0,0,3,0,3,0,4,0,4,0,,,,,,,,,,,,,,,,,,,,,,,,,20.04636115300127,,,,,,,,,,,,,,,,,,,,,,,,,20.02433041200129,20.02435329800028,20.024359983000977,20.02437678300157,,,,,,,,,,,,,,,,,,,,,,,,,,,,,,,,,,,,,,,,,,,,,,870145,001,2024-03-21_18h53.55.186,Test1,2023.2.3,None,2024-03-21 18h54.02.735182 -0300,
0,0,0,0,3,0,3,0,5,0,5,0,,,,,,,,,,,,,,,,,,,,,,,,,20.04636115300127,,,,,,,,,,,,,,,,,,,,,,,,,20.024528685000405,20.024556098000176,20.024562964001234,20.024576606001574,,,,,,,,,,,,,,,,,,,,,,,,,,,,,,,,,,,,,,,,,,,,,,870145,001,2024-03-21_18h53.55.186,Test1,2023.2.3,None,2024-03-21 18h54.02.735182 -0300,
0,0,0,0,3,0,3,0,6,0,6,0,,,,,,,,,,,,,,,,,,,,,,,,,20.04636115300127,,,,,,,,,,,,,,,,,,,,,,,,,20.02472685200155,20.024753136000072,20.02475996800058,20.024773566001386,,,,,,,,,,,,,,,,,,,,,,,,,,,,,,,,,,,,,,,,,,,,,,870145,001,2024-03-21_18h53.55.186,Test1,2023.2.3,None,2024-03-21 18h54.02.735182 -0300,
0,0,0,0,3,0,3,0,7,0,7,0,,,,,,,,,,,,,,,,,,,,,,,,,20.04636115300127,,,,,,,,,,,,,,,,,,,,,,,,,20.024923169999965,20.024945572000433,20.02495243500016,20.02496526700088,,,,,,,,,,,,,,,,,,,,,,,,,,,,,,,,,,,,,,,,,,,,,,870145,001,2024-03-21_18h53.55.186,Test1,2023.2.3,None,2024-03-21 18h54.02.735182 -0300,
0,0,0,0,3,0,3,0,8,0,8,0,,,,,,,,,,,,,,,,,,,,,,,,,20.04636115300127,,,,,,,,,,,,,,,,,,,,,,,,,20.02511787900039,20.0251401050009,20.025146850000965,20.025159528000586,,,,,,,,,,,,,,,,,,,,,,,,,,,,,,,,,,,,,,,,,,,,,,870145,001,2024-03-21_18h53.55.186,Test1,2023.2.3,None,2024-03-21 18h54.02.735182 -0300,
0,0,0,0,3,0,3,0,9,0,9,0,,,,,,,,,,,,,,,,,,,,,,,,,20.04636115300127,,,,,,,,,,,,,,,,,,,,,,,,,20.025307023001005,20.025329022000733,20.025335669000924,20.025348528000904,,,,,,,,,,,,,,,,,,,,,,,,,,,,,,,,,,,,,,,,,,,,,,870145,001,2024-03-21_18h53.55.186,Test1,2023.2.3,None,2024-03-21 18h54.02.735182 -0300,
0,0,0,0,3,0,3,0,,,,,,,,,,,,,,,,,,,,,,,,,,,,,,,,,,,,,,,,,,,,,,,,,,,,,,,,,,,,,,,,,,,,,,,,,,,,,,,,,,,,,,,,,,,,,,,,,,,,,,,870145,001,2024-03-21_18h53.55.186,Test1,2023.2.3,None,2024-03-21 18h54.02.735182 -0300,
0,0,0,0,4,0,4,0,0,0,0,0,,,,,,,,,,,,,,,,,,,,,,,,,20.04636115300127,,,,,,,,,,,,,,,,,,,,,,,,,20.02587713200046,20.02590311000131,20.02590981100002,20.025922540000465,,,,,,,,,,,,,,,,,,,,,,,,,,,,,,,,,,,,,,,,,,,,,,870145,001,2024-03-21_18h53.55.186,Test1,2023.2.3,None,2024-03-21 18h54.02.735182 -0300,
0,0,0,0,4,0,4,0,1,0,1,0,,,,,,,,,,,,,,,,,,,,,,,,,20.04636115300127,,,,,,,,,,,,,,,,,,,,,,,,,20.02606563700101,20.026087723001183,20.026094199,20.02610782300144,,,,,,,,,,,,,,,,,,,,,,,,,,,,,,,,,,,,,,,,,,,,,,870145,001,2024-03-21_18h53.55.186,Test1,2023.2.3,None,2024-03-21 18h54.02.735182 -0300,
0,0,0,0,4,0,4,0,2,0,2,0,,,,,,,,,,,,,,,,,,,,,,,,,20.04636115300127,,,,,,,,,,,,,,,,,,,,,,,,,20.026247940000758,20.026269805000993,20.02627609100091,20.026288940000086,,,,,,,,,,,,,,,,,,,,,,,,,,,,,,,,,,,,,,,,,,,,,,870145,001,2024-03-21_18h53.55.186,Test1,2023.2.3,None,2024-03-21 18h54.02.735182 -0300,
0,0,0,0,4,0,4,0,3,0,3,0,,,,,,,,,,,,,,,,,,,,,,,,,20.04636115300127,,,,,,,,,,,,,,,,,,,,,,,,,20.026433292001457,20.026458353000635,20.026464518001376,20.026479411000764,,,,,,,,,,,,,,,,,,,,,,,,,,,,,,,,,,,,,,,,,,,,,,870145,001,2024-03-21_18h53.55.186,Test1,2023.2.3,None,2024-03-21 18h54.02.735182 -0300,
0,0,0,0,4,0,4,0,4,0,4,0,,,,,,,,,,,,,,,,,,,,,,,,,20.04636115300127,,,,,,,,,,,,,,,,,,,,,,,,,20.026619622,20.026641203001418,20.02664736100087,20.02665951400013,,,,,,,,,,,,,,,,,,,,,,,,,,,,,,,,,,,,,,,,,,,,,,870145,001,2024-03-21_18h53.55.186,Test1,2023.2.3,None,2024-03-21 18h54.02.735182 -0300,
0,0,0,0,4,0,4,0,5,0,5,0,,,,,,,,,,,,,,,,,,,,,,,,,20.04636115300127,,,,,,,,,,,,,,,,,,,,,,,,,20.02679668500059,20.026817814001333,20.02682413399998,20.026836897000976,,,,,,,,,,,,,,,,,,,,,,,,,,,,,,,,,,,,,,,,,,,,,,870145,001,2024-03-21_18h53.55.186,Test1,2023.2.3,None,2024-03-21 18h54.02.735182 -0300,
0,0,0,0,4,0,4,0,6,0,6,0,,,,,,,,,,,,,,,,,,,,,,,,,20.04636115300127,,,,,,,,,,,,,,,,,,,,,,,,,20.026974469999914,20.026998801000445,20.027005170000848,20.02705234200039,,,,,,,,,,,,,,,,,,,,,,,,,,,,,,,,,,,,,,,,,,,,,,870145,001,2024-03-21_18h53.55.186,Test1,2023.2.3,None,2024-03-21 18h54.02.735182 -0300,
0,0,0,0,4,0,4,0,7,0,7,0,,,,,,,,,,,,,,,,,,,,,,,,,20.04636115300127,,,,,,,,,,,,,,,,,,,,,,,,,20.027199715999814,20.027221276001,20.02722770500077,20.027240090001214,,,,,,,,,,,,,,,,,,,,,,,,,,,,,,,,,,,,,,,,,,,,,,870145,001,2024-03-21_18h53.55.186,Test1,2023.2.3,None,2024-03-21 18h54.02.735182 -0300,
0,0,0,0,4,0,4,0,8,0,8,0,,,,,,,,,,,,,,,,,,,,,,,,,20.04636115300127,,,,,,,,,,,,,,,,,,,,,,,,,20.027378676000808,20.027400083999964,20.027406496001277,20.027419020001616,,,,,,,,,,,,,,,,,,,,,,,,,,,,,,,,,,,,,,,,,,,,,,870145,001,2024-03-21_18h53.55.186,Test1,2023.2.3,None,2024-03-21 18h54.02.735182 -0300,
0,0,0,0,4,0,4,0,9,0,9,0,,,,,,,,,,,,,,,,,,,,,,,,,20.04636115300127,,,,,,,,,,,,,,,,,,,,,,,,,20.027556204000575,20.027577830000155,20.027584230001594,20.02759613499984,,,,,,,,,,,,,,,,,,,,,,,,,,,,,,,,,,,,,,,,,,,,,,870145,001,2024-03-21_18h53.55.186,Test1,2023.2.3,None,2024-03-21 18h54.02.735182 -0300,
0,0,0,0,4,0,4,0,,,,,,,,,,,,,,,,,,,,,,,,,,,,,,,,,,,,,,,,,,,,,,,,,,,,,,,,,,,,,,,,,,,,,,,,,,,,,,,,,,,,,,,,,,,,,,,,,,,,,,,870145,001,2024-03-21_18h53.55.186,Test1,2023.2.3,None,2024-03-21 18h54.02.735182 -0300,
0,0,0,0,5,0,5,0,0,0,0,0,,,,,,,,,,,,,,,,,,,,,,,,,20.04636115300127,,,,,,,,,,,,,,,,,,,,,,,,,20.028091275000406,20.028117208999902,20.028123886000685,20.028137053001046,,,,,,,,,,,,,,,,,,,,,,,,,,,,,,,,,,,,,,,,,,,,,,870145,001,2024-03-21_18h53.55.186,Test1,2023.2.3,None,2024-03-21 18h54.02.735182 -0300,
0,0,0,0,5,0,5,0,1,0,1,0,,,,,,,,,,,,,,,,,,,,,,,,,20.04636115300127,,,,,,,,,,,,,,,,,,,,,,,,,20.028280464001,20.02830201800134,20.028308475000813,20.0283207650009,,,,,,,,,,,,,,,,,,,,,,,,,,,,,,,,,,,,,,,,,,,,,,870145,001,2024-03-21_18h53.55.186,Test1,2023.2.3,None,2024-03-21 18h54.02.735182 -0300,
0,0,0,0,5,0,5,0,2,0,2,0,,,,,,,,,,,,,,,,,,,,,,,,,20.04636115300127,,,,,,,,,,,,,,,,,,,,,,,,,20.028467725000155,20.028489285999967,20.0284956530013,20.02850794799997,,,,,,,,,,,,,,,,,,,,,,,,,,,,,,,,,,,,,,,,,,,,,,870145,001,2024-03-21_18h53.55.186,Test1,2023.2.3,None,2024-03-21 18h54.02.735182 -0300,
0,0,0,0,5,0,5,0,3,0,3,0,,,,,,,,,,,,,,,,,,,,,,,,,20.04636115300127,,,,,,,,,,,,,,,,,,,,,,,,,20.02865022700098,20.0286717350009,20.028678096001386,20.028690978000668,,,,,,,,,,,,,,,,,,,,,,,,,,,,,,,,,,,,,,,,,,,,,,870145,001,2024-03-21_18h53.55.186,Test1,2023.2.3,None,2024-03-21 18h54.02.735182 -0300,
0,0,0,0,5,0,5,0,4,0,4,0,,,,,,,,,,,,,,,,,,,,,,,,,20.04636115300127,,,,,,,,,,,,,,,,,,,,,,,,,20.02882969300117,20.028850835000412,20.028857113000413,20.028869327999928,,,,,,,,,,,,,,,,,,,,,,,,,,,,,,,,,,,,,,,,,,,,,,870145,001,2024-03-21_18h53.55.186,Test1,2023.2.3,None,2024-03-21 18h54.02.735182 -0300,
0,0,0,0,5,0,5,0,5,0,5,0,,,,,,,,,,,,,,,,,,,,,,,,,20.04636115300127,,,,,,,,,,,,,,,,,,,,,,,,,20.02900601500005,20.02902739000092,20.02903362500001,20.029053261001536,,,,,,,,,,,,,,,,,,,,,,,,,,,,,,,,,,,,,,,,,,,,,,870145,001,2024-03-21_18h53.55.186,Test1,2023.2.3,None,2024-03-21 18h54.02.735182 -0300,
0,0,0,0,5,0,5,0,6,0,6,0,,,,,,,,,,,,,,,,,,,,,,,,,20.04636115300127,,,,,,,,,,,,,,,,,,,,,,,,,20.029194930000813,20.029220375001387,20.029226577000372,20.029240046000268,,,,,,,,,,,,,,,,,,,,,,,,,,,,,,,,,,,,,,,,,,,,,,870145,001,2024-03-21_18h53.55.186,Test1,2023.2.3,None,2024-03-21 18h54.02.735182 -0300,
0,0,0,0,5,0,5,0,7,0,7,0,,,,,,,,,,,,,,,,,,,,,,,,,20.04636115300127,,,,,,,,,,,,,,,,,,,,,,,,,20.02939094500107,20.029413535001368,20.029419812000924,20.02943267000046,,,,,,,,,,,,,,,,,,,,,,,,,,,,,,,,,,,,,,,,,,,,,,870145,001,2024-03-21_18h53.55.186,Test1,2023.2.3,None,2024-03-21 18h54.02.735182 -0300,
0,0,0,0,5,0,5,0,8,0,8,0,,,,,,,,,,,,,,,,,,,,,,,,,20.04636115300127,,,,,,,,,,,,,,,,,,,,,,,,,20.029567036001026,20.029587999000796,20.02959407200069,20.029609537001306,,,,,,,,,,,,,,,,,,,,,,,,,,,,,,,,,,,,,,,,,,,,,,870145,001,2024-03-21_18h53.55.186,Test1,2023.2.3,None,2024-03-21 18h54.02.735182 -0300,
0,0,0,0,5,0,5,0,9,0,9,0,,,,,,,,,,,,,,,,,,,,,,,,,20.04636115300127,,,,,,,,,,,,,,,,,,,,,,,,,20.029746166001132,20.02976792500158,20.029773878000924,20.029786907000016,,,,,,,,,,,,,,,,,,,,,,,,,,,,,,,,,,,,,,,,,,,,,,870145,001,2024-03-21_18h53.55.186,Test1,2023.2.3,None,2024-03-21 18h54.02.735182 -0300,
0,0,0,0,5,0,5,0,,,,,,,,,,,,,,,,,,,,,,,,,,,,,,,,,,,,,,,,,,,,,,,,,,,,,,,,,,,,,,,,,,,,,,,,,,,,,,,,,,,,,,,,,,,,,,,,,,,,,,,870145,001,2024-03-21_18h53.55.186,Test1,2023.2.3,None,2024-03-21 18h54.02.735182 -0300,
0,0,0,0,6,0,6,0,0,0,0,0,,,,,,,,,,,,,,,,,,,,,,,,,20.04636115300127,,,,,,,,,,,,,,,,,,,,,,,,,20.03026804900037,20.030294916001367,20.030301745000543,20.03031522600031,,,,,,,,,,,,,,,,,,,,,,,,,,,,,,,,,,,,,,,,,,,,,,870145,001,2024-03-21_18h53.55.186,Test1,2023.2.3,None,2024-03-21 18h54.02.735182 -0300,
0,0,0,0,6,0,6,0,1,0,1,0,,,,,,,,,,,,,,,,,,,,,,,,,20.04636115300127,,,,,,,,,,,,,,,,,,,,,,,,,20.030463199000224,20.030485781000607,20.03049211400139,20.030505544000334,,,,,,,,,,,,,,,,,,,,,,,,,,,,,,,,,,,,,,,,,,,,,,870145,001,2024-03-21_18h53.55.186,Test1,2023.2.3,None,2024-03-21 18h54.02.735182 -0300,
0,0,0,0,6,0,6,0,2,0,2,0,,,,,,,,,,,,,,,,,,,,,,,,,20.04636115300127,,,,,,,,,,,,,,,,,,,,,,,,,20.030644050000774,20.030665875001432,20.030672180000693,20.030685128000187,,,,,,,,,,,,,,,,,,,,,,,,,,,,,,,,,,,,,,,,,,,,,,870145,001,2024-03-21_18h53.55.186,Test1,2023.2.3,None,2024-03-21 18h54.02.735182 -0300,
0,0,0,0,6,0,6,0,3,0,3,0,,,,,,,,,,,,,,,,,,,,,,,,,20.04636115300127,,,,,,,,,,,,,,,,,,,,,,,,,20.030825567000647,20.03084725700137,20.030853516000207,20.030866132001393,,,,,,,,,,,,,,,,,,,,,,,,,,,,,,,,,,,,,,,,,,,,,,870145,001,2024-03-21_18h53.55.186,Test1,2023.2.3,None,2024-03-21 18h54.02.735182 -0300,
0,0,0,0,6,0,6,0,4,0,4,0,,,,,,,,,,,,,,,,,,,,,,,,,20.04636115300127,,,,,,,,,,,,,,,,,,,,,,,,,20.031001937000838,20.031023531000756,20.031029626999953,20.031042616999912,,,,,,,,,,,,,,,,,,,,,,,,,,,,,,,,,,,,,,,,,,,,,,870145,001,2024-03-21_18h53.55.186,Test1,2023.2.3,None,2024-03-21 18h54.02.735182 -0300,
0,0,0,0,6,0,6,0,5,0,5,0,,,,,,,,,,,,,,,,,,,,,,,,,20.04636115300127,,,,,,,,,,,,,,,,,,,,,,,,,20.031183099001282,20.0312041950001,20.03121032800118,20.031223100000716,,,,,,,,,,,,,,,,,,,,,,,,,,,,,,,,,,,,,,,,,,,,,,870145,001,2024-03-21_18h53.55.186,Test1,2023.2.3,None,2024-03-21 18h54.02.735182 -0300,
0,0,0,0,6,0,6,0,6,0,6,0,,,,,,,,,,,,,,,,,,,,,,,,,20.04636115300127,,,,,,,,,,,,,,,,,,,,,,,,,20.031359857001007,20.031381288001285,20.031387283001095,20.031400619000124,,,,,,,,,,,,,,,,,,,,,,,,,,,,,,,,,,,,,,,,,,,,,,870145,001,2024-03-21_18h53.55.186,Test1,2023.2.3,None,2024-03-21 18h54.02.735182 -0300,
0,0,0,0,6,0,6,0,7,0,7,0,,,,,,,,,,,,,,,,,,,,,,,,,20.04636115300127,,,,,,,,,,,,,,,,,,,,,,,,,20.03154322500086,20.031564508000884,20.031570824001392,20.031583683001372,,,,,,,,,,,,,,,,,,,,,,,,,,,,,,,,,,,,,,,,,,,,,,870145,001,2024-03-21_18h53.55.186,Test1,2023.2.3,None,2024-03-21 18h54.02.735182 -0300,
0,0,0,0,6,0,6,0,8,0,8,0,,,,,,,,,,,,,,,,,,,,,,,,,20.04636115300127,,,,,,,,,,,,,,,,,,,,,,,,,20.031723285001135,20.03174492800099,20.031751110000187,20.031763300999955,,,,,,,,,,,,,,,,,,,,,,,,,,,,,,,,,,,,,,,,,,,,,,870145,001,2024-03-21_18h53.55.186,Test1,2023.2.3,None,2024-03-21 18h54.02.735182 -0300,
0,0,0,0,6,0,6,0,9,0,9,0,,,,,,,,,,,,,,,,,,,,,,,,,20.04636115300127,,,,,,,,,,,,,,,,,,,,,,,,,20.031897390001177,20.031918428001518,20.031924675000482,20.031937186000505,,,,,,,,,,,,,,,,,,,,,,,,,,,,,,,,,,,,,,,,,,,,,,870145,001,2024-03-21_18h53.55.186,Test1,2023.2.3,None,2024-03-21 18h54.02.735182 -0300,
0,0,0,0,6,0,6,0,,,,,,,,,,,,,,,,,,,,,,,,,,,,,,,,,,,,,,,,,,,,,,,,,,,,,,,,,,,,,,,,,,,,,,,,,,,,,,,,,,,,,,,,,,,,,,,,,,,,,,,870145,001,2024-03-21_18h53.55.186,Test1,2023.2.3,None,2024-03-21 18h54.02.735182 -0300,
0,0,0,0,7,0,7,0,0,0,0,0,,,,,,,,,,,,,,,,,,,,,,,,,20.04636115300127,,,,,,,,,,,,,,,,,,,,,,,,,20.032430475001092,20.032456992001244,20.032463585001096,20.032477086000654,,,,,,,,,,,,,,,,,,,,,,,,,,,,,,,,,,,,,,,,,,,,,,870145,001,2024-03-21_18h53.55.186,Test1,2023.2.3,None,2024-03-21 18h54.02.735182 -0300,
0,0,0,0,7,0,7,0,1,0,1,0,,,,,,,,,,,,,,,,,,,,,,,,,20.04636115300127,,,,,,,,,,,,,,,,,,,,,,,,,20.032796111001517,20.032824134999828,20.032831096001246,20.03284471799998,,,,,,,,,,,,,,,,,,,,,,,,,,,,,,,,,,,,,,,,,,,,,,870145,001,2024-03-21_18h53.55.186,Test1,2023.2.3,None,2024-03-21 18h54.02.735182 -0300,
0,0,0,0,7,0,7,0,2,0,2,0,,,,,,,,,,,,,,,,,,,,,,,,,20.04636115300127,,,,,,,,,,,,,,,,,,,,,,,,,20.033018874000845,20.03305778700087,20.033064093000576,20.03307720000157,,,,,,,,,,,,,,,,,,,,,,,,,,,,,,,,,,,,,,,,,,,,,,870145,001,2024-03-21_18h53.55.186,Test1,2023.2.3,None,2024-03-21 18h54.02.735182 -0300,
0,0,0,0,7,0,7,0,3,0,3,0,,,,,,,,,,,,,,,,,,,,,,,,,20.04636115300127,,,,,,,,,,,,,,,,,,,,,,,,,20.033226545001526,20.03324864700153,20.03325804999986,20.03327128500132,,,,,,,,,,,,,,,,,,,,,,,,,,,,,,,,,,,,,,,,,,,,,,870145,001,2024-03-21_18h53.55.186,Test1,2023.2.3,None,2024-03-21 18h54.02.735182 -0300,
0,0,0,0,7,0,7,0,4,0,4,0,,,,,,,,,,,,,,,,,,,,,,,,,20.04636115300127,,,,,,,,,,,,,,,,,,,,,,,,,20.033410199001082,20.03343560600115,20.033441892001065,20.03345498300041,,,,,,,,,,,,,,,,,,,,,,,,,,,,,,,,,,,,,,,,,,,,,,870145,001,2024-03-21_18h53.55.186,Test1,2023.2.3,None,2024-03-21 18h54.02.735182 -0300,
0,0,0,0,7,0,7,0,5,0,5,0,,,,,,,,,,,,,,,,,,,,,,,,,20.04636115300127,,,,,,,,,,,,,,,,,,,,,,,,,20.033592117000808,20.033613518000493,20.033619819001615,20.03363241599982,,,,,,,,,,,,,,,,,,,,,,,,,,,,,,,,,,,,,,,,,,,,,,870145,001,2024-03-21_18h53.55.186,Test1,2023.2.3,None,2024-03-21 18h54.02.735182 -0300,
0,0,0,0,7,0,7,0,6,0,6,0,,,,,,,,,,,,,,,,,,,,,,,,,20.04636115300127,,,,,,,,,,,,,,,,,,,,,,,,,20.033767689999877,20.033792460000768,20.033798801001467,20.033811286000855,,,,,,,,,,,,,,,,,,,,,,,,,,,,,,,,,,,,,,,,,,,,,,870145,001,2024-03-21_18h53.55.186,Test1,2023.2.3,None,2024-03-21 18h54.02.735182 -0300,
0,0,0,0,7,0,7,0,7,0,7,0,,,,,,,,,,,,,,,,,,,,,,,,,20.04636115300127,,,,,,,,,,,,,,,,,,,,,,,,,20.033949310000025,20.03397134500119,20.033977479000896,20.03398985900094,,,,,,,,,,,,,,,,,,,,,,,,,,,,,,,,,,,,,,,,,,,,,,870145,001,2024-03-21_18h53.55.186,Test1,2023.2.3,None,2024-03-21 18h54.02.735182 -0300,
0,0,0,0,7,0,7,0,8,0,8,0,,,,,,,,,,,,,,,,,,,,,,,,,20.04636115300127,,,,,,,,,,,,,,,,,,,,,,,,,20.03412455600119,20.03414531300041,20.03415130600115,20.03416367600039,,,,,,,,,,,,,,,,,,,,,,,,,,,,,,,,,,,,,,,,,,,,,,870145,001,2024-03-21_18h53.55.186,Test1,2023.2.3,None,2024-03-21 18h54.02.735182 -0300,
0,0,0,0,7,0,7,0,9,0,9,0,,,,,,,,,,,,,,,,,,,,,,,,,20.04636115300127,,,,,,,,,,,,,,,,,,,,,,,,,20.03429681000125,20.034317659999942,20.03432365500157,20.03436522500124,,,,,,,,,,,,,,,,,,,,,,,,,,,,,,,,,,,,,,,,,,,,,,870145,001,2024-03-21_18h53.55.186,Test1,2023.2.3,None,2024-03-21 18h54.02.735182 -0300,
0,0,0,0,7,0,7,0,,,,,,,,,,,,,,,,,,,,,,,,,,,,,,,,,,,,,,,,,,,,,,,,,,,,,,,,,,,,,,,,,,,,,,,,,,,,,,,,,,,,,,,,,,,,,,,,,,,,,,,870145,001,2024-03-21_18h53.55.186,Test1,2023.2.3,None,2024-03-21 18h54.02.735182 -0300,
0,0,0,0,8,0,8,0,0,0,0,0,,,,,,,,,,,,,,,,,,,,,,,,,20.04636115300127,,,,,,,,,,,,,,,,,,,,,,,,,20.03489179999997,20.03491836000103,20.034924966999824,20.034939021001264,,,,,,,,,,,,,,,,,,,,,,,,,,,,,,,,,,,,,,,,,,,,,,870145,001,2024-03-21_18h53.55.186,Test1,2023.2.3,None,2024-03-21 18h54.02.735182 -0300,
0,0,0,0,8,0,8,0,1,0,1,0,,,,,,,,,,,,,,,,,,,,,,,,,20.04636115300127,,,,,,,,,,,,,,,,,,,,,,,,,20.03508886200143,20.035111826000502,20.03511806500137,20.035130783000568,,,,,,,,,,,,,,,,,,,,,,,,,,,,,,,,,,,,,,,,,,,,,,870145,001,2024-03-21_18h53.55.186,Test1,2023.2.3,None,2024-03-21 18h54.02.735182 -0300,
0,0,0,0,8,0,8,0,2,0,2,0,,,,,,,,,,,,,,,,,,,,,,,,,20.04636115300127,,,,,,,,,,,,,,,,,,,,,,,,,20.03527453800052,20.03529928200078,20.035305639999933,20.03531848500097,,,,,,,,,,,,,,,,,,,,,,,,,,,,,,,,,,,,,,,,,,,,,,870145,001,2024-03-21_18h53.55.186,Test1,2023.2.3,None,2024-03-21 18h54.02.735182 -0300,
0,0,0,0,8,0,8,0,3,0,3,0,,,,,,,,,,,,,,,,,,,,,,,,,20.04636115300127,,,,,,,,,,,,,,,,,,,,,,,,,20.03545726700031,20.035478876001434,20.0354849560008,20.03549762700095,,,,,,,,,,,,,,,,,,,,,,,,,,,,,,,,,,,,,,,,,,,,,,870145,001,2024-03-21_18h53.55.186,Test1,2023.2.3,None,2024-03-21 18h54.02.735182 -0300,
0,0,0,0,8,0,8,0,4,0,4,0,,,,,,,,,,,,,,,,,,,,,,,,,20.04636115300127,,,,,,,,,,,,,,,,,,,,,,,,,20.03563221100012,20.035652841001138,20.035659095001392,20.035671532999913,,,,,,,,,,,,,,,,,,,,,,,,,,,,,,,,,,,,,,,,,,,,,,870145,001,2024-03-21_18h53.55.186,Test1,2023.2.3,None,2024-03-21 18h54.02.735182 -0300,
0,0,0,0,8,0,8,0,5,0,5,0,,,,,,,,,,,,,,,,,,,,,,,,,20.04636115300127,,,,,,,,,,,,,,,,,,,,,,,,,20.035804984001516,20.035828885000228,20.035835035001583,20.035849820000294,,,,,,,,,,,,,,,,,,,,,,,,,,,,,,,,,,,,,,,,,,,,,,870145,001,2024-03-21_18h53.55.186,Test1,2023.2.3,None,2024-03-21 18h54.02.735182 -0300,
0,0,0,0,8,0,8,0,6,0,6,0,,,,,,,,,,,,,,,,,,,,,,,,,20.04636115300127,,,,,,,,,,,,,,,,,,,,,,,,,20.035984608000945,20.036008662000313,20.0360149320004,20.036027820000527,,,,,,,,,,,,,,,,,,,,,,,,,,,,,,,,,,,,,,,,,,,,,,870145,001,2024-03-21_18h53.55.186,Test1,2023.2.3,None,2024-03-21 18h54.02.735182 -0300,
0,0,0,0,8,0,8,0,7,0,7,0,,,,,,,,,,,,,,,,,,,,,,,,,20.04636115300127,,,,,,,,,,,,,,,,,,,,,,,,,20.036162169000818,20.036182883000947,20.03618909800025,20.036201333001372,,,,,,,,,,,,,,,,,,,,,,,,,,,,,,,,,,,,,,,,,,,,,,870145,001,2024-03-21_18h53.55.186,Test1,2023.2.3,None,2024-03-21 18h54.02.735182 -0300,
0,0,0,0,8,0,8,0,8,0,8,0,,,,,,,,,,,,,,,,,,,,,,,,,20.04636115300127,,,,,,,,,,,,,,,,,,,,,,,,,20.036334845000965,20.03635598100118,20.03636203300084,20.036374720000822,,,,,,,,,,,,,,,,,,,,,,,,,,,,,,,,,,,,,,,,,,,,,,870145,001,2024-03-21_18h53.55.186,Test1,2023.2.3,None,2024-03-21 18h54.02.735182 -0300,
0,0,0,0,8,0,8,0,9,0,9,0,,,,,,,,,,,,,,,,,,,,,,,,,20.04636115300127,,,,,,,,,,,,,,,,,,,,,,,,,20.036511918000542,20.03653303700048,20.036539089000144,20.03655177100154,,,,,,,,,,,,,,,,,,,,,,,,,,,,,,,,,,,,,,,,,,,,,,870145,001,2024-03-21_18h53.55.186,Test1,2023.2.3,None,2024-03-21 18h54.02.735182 -0300,
0,0,0,0,8,0,8,0,,,,,,,,,,,,,,,,,,,,,,,,,,,,,,,,,,,,,,,,,,,,,,,,,,,,,,,,,,,,,,,,,,,,,,,,,,,,,,,,,,,,,,,,,,,,,,,,,,,,,,,870145,001,2024-03-21_18h53.55.186,Test1,2023.2.3,None,2024-03-21 18h54.02.735182 -0300,
0,0,0,0,9,0,9,0,0,0,0,0,,,,,,,,,,,,,,,,,,,,,,,,,20.04636115300127,,,,,,,,,,,,,,,,,,,,,,,,,20.037068999999974,20.037095229999977,20.037101890000486,20.037115357999937,,,,,,,,,,,,,,,,,,,,,,,,,,,,,,,,,,,,,,,,,,,,,,870145,001,2024-03-21_18h53.55.186,Test1,2023.2.3,None,2024-03-21 18h54.02.735182 -0300,
0,0,0,0,9,0,9,0,1,0,1,0,,,,,,,,,,,,,,,,,,,,,,,,,20.04636115300127,,,,,,,,,,,,,,,,,,,,,,,,,20.03726023099989,20.0372826290004,20.037289035000867,20.03730163,,,,,,,,,,,,,,,,,,,,,,,,,,,,,,,,,,,,,,,,,,,,,,870145,001,2024-03-21_18h53.55.186,Test1,2023.2.3,None,2024-03-21 18h54.02.735182 -0300,
0,0,0,0,9,0,9,0,2,0,2,0,,,,,,,,,,,,,,,,,,,,,,,,,20.04636115300127,,,,,,,,,,,,,,,,,,,,,,,,,20.037437586001033,20.037459324999872,20.037465459001396,20.037478191001355,,,,,,,,,,,,,,,,,,,,,,,,,,,,,,,,,,,,,,,,,,,,,,870145,001,2024-03-21_18h53.55.186,Test1,2023.2.3,None,2024-03-21 18h54.02.735182 -0300,
0,0,0,0,9,0,9,0,3,0,3,0,,,,,,,,,,,,,,,,,,,,,,,,,20.04636115300127,,,,,,,,,,,,,,,,,,,,,,,,,20.037616068000716,20.037640414000634,20.037646701000995,20.037661857000785,,,,,,,,,,,,,,,,,,,,,,,,,,,,,,,,,,,,,,,,,,,,,,870145,001,2024-03-21_18h53.55.186,Test1,2023.2.3,None,2024-03-21 18h54.02.735182 -0300,
0,0,0,0,9,0,9,0,4,0,4,0,,,,,,,,,,,,,,,,,,,,,,,,,20.04636115300127,,,,,,,,,,,,,,,,,,,,,,,,,20.037797697001224,20.03781874500055,20.037824985000043,20.03784055000142,,,,,,,,,,,,,,,,,,,,,,,,,,,,,,,,,,,,,,,,,,,,,,870145,001,2024-03-21_18h53.55.186,Test1,2023.2.3,None,2024-03-21 18h54.02.735182 -0300,
0,0,0,0,9,0,9,0,5,0,5,0,,,,,,,,,,,,,,,,,,,,,,,,,20.04636115300127,,,,,,,,,,,,,,,,,,,,,,,,,20.037975020000886,20.03799922899998,20.038005504000466,20.038018265000574,,,,,,,,,,,,,,,,,,,,,,,,,,,,,,,,,,,,,,,,,,,,,,870145,001,2024-03-21_18h53.55.186,Test1,2023.2.3,None,2024-03-21 18h54.02.735182 -0300,
0,0,0,0,9,0,9,0,6,0,6,0,,,,,,,,,,,,,,,,,,,,,,,,,20.04636115300127,,,,,,,,,,,,,,,,,,,,,,,,,20.038152745000843,20.038177074000487,20.03818329800015,20.038195674000235,,,,,,,,,,,,,,,,,,,,,,,,,,,,,,,,,,,,,,,,,,,,,,870145,001,2024-03-21_18h53.55.186,Test1,2023.2.3,None,2024-03-21 18h54.02.735182 -0300,
0,0,0,0,9,0,9,0,7,0,7,0,,,,,,,,,,,,,,,,,,,,,,,,,20.04636115300127,,,,,,,,,,,,,,,,,,,,,,,,,20.038329513999997,20.03835031500057,20.038356342000043,20.03836860500087,,,,,,,,,,,,,,,,,,,,,,,,,,,,,,,,,,,,,,,,,,,,,,870145,001,2024-03-21_18h53.55.186,Test1,2023.2.3,None,2024-03-21 18h54.02.735182 -0300,
0,0,0,0,9,0,9,0,8,0,8,0,,,,,,,,,,,,,,,,,,,,,,,,,20.04636115300127,,,,,,,,,,,,,,,,,,,,,,,,,20.03850988600061,20.038530877000085,20.038536980000572,20.038549418000912,,,,,,,,,,,,,,,,,,,,,,,,,,,,,,,,,,,,,,,,,,,,,,870145,001,2024-03-21_18h53.55.186,Test1,2023.2.3,None,2024-03-21 18h54.02.735182 -0300,
0,0,0,0,9,0,9,0,9,0,9,0,,,,,,,,,,,,,,,,,,,,,,,,,20.04636115300127,,,,,,,,,,,,,,,,,,,,,,,,,20.03868441400118,20.038705273000232,20.03871129700019,20.03872376000072,,,,,,,,,,,,,,,,,,,,,,,,,,,,,,,,,,,,,,,,,,,,,,870145,001,2024-03-21_18h53.55.186,Test1,2023.2.3,None,2024-03-21 18h54.02.735182 -0300,
0,0,0,0,9,0,9,0,,,,,,,,,,,,,,,,,,,,,,,,,,,,,,,,,,,,,,,,,,,,,,,,,,,,,,,,,,,,,,,,,,,,,,,,,,,,,,,,,,,,,,,,,,,,,,,,,,,,,,,870145,001,2024-03-21_18h53.55.186,Test1,2023.2.3,None,2024-03-21 18h54.02.735182 -0300,
0,0,0,0,,,,,,,,,0,0,0,0,0,0,0,0,,,,,,,,,,,,,,,,,20.04636115300127,,,,,,,,,,,,,,,,,,,,,,,,,,,,,20.039345520001007,20.04636115300127,20.04636115300127,20.04636115300127,20.04636115300127,25.043718069000533,25.043718069000533,25.043718069000533,25.043718069000533,25.035568850000345,25.03558588300075,25.043718069000533,26.025096380000832,,,,,,,,,,,,,,,,,,,,,,,,,,,,,,,,,870145,001,2024-03-21_18h53.55.186,Test1,2023.2.3,None,2024-03-21 18h54.02.735182 -0300,
0,0,0,0,,,,,,,,,0,0,0,0,,,,,,,,,,,,,,,,,,,,,,,,,,,,,,,,,,,,,,,,,,,,,,,,,,,,,,,,,,,,,,,,,,,,,,,,,,,,,,,,,,,,,,,,,,,,,,,870145,001,2024-03-21_18h53.55.186,Test1,2023.2.3,None,2024-03-21 18h54.02.735182 -0300,
0,0,0,0,,,,,,,,,,,,,,,,,0,0,0,0,0,0,0,0,,,,,,,,,26.074678586001028,,,,,,,,,,,,,,,,,,,,,,,,,,,,,,,,,,,,,,,,,,26.02701378600068,26.02710289100105,26.027118293000967,26.027144718000272,,,,,,,,,,,,,,,,,,,,,,,,,,,,,870145,001,2024-03-21_18h53.55.186,Test1,2023.2.3,None,2024-03-21 18h54.02.735182 -0300,
0,0,0,0,,,,,,,,,,,,,,,,,0,0,0,0,1,0,1,0,,,,,,,,,26.074678586001028,,,,,,,,,,,,,,,,,,,,,,,,,,,,,,,,,,,,,,,,,,26.02743037000073,26.027492487000927,26.02751168100076,26.027535698000065,,,,,,,,,,,,,,,,,,,,,,,,,,,,,870145,001,2024-03-21_18h53.55.186,Test1,2023.2.3,None,2024-03-21 18h54.02.735182 -0300,
0,0,0,0,,,,,,,,,,,,,,,,,0,0,0,0,2,0,2,0,,,,,,,,,26.074678586001028,,,,,,,,,,,,,,,,,,,,,,,,,,,,,,,,,,,,,,,,,,26.028129809999882,26.03034277700135,26.0303575070011,26.030378209001356,,,,,,,,,,,,,,,,,,,,,,,,,,,,,870145,001,2024-03-21_18h53.55.186,Test1,2023.2.3,None,2024-03-21 18h54.02.735182 -0300,
0,0,0,0,,,,,,,,,,,,,,,,,0,0,0,0,3,0,3,0,,,,,,,,,26.074678586001028,,,,,,,,,,,,,,,,,,,,,,,,,,,,,,,,,,,,,,,,,,26.030655316000775,26.03070781600036,26.030718396001248,26.030737726001462,,,,,,,,,,,,,,,,,,,,,,,,,,,,,870145,001,2024-03-21_18h53.55.186,Test1,2023.2.3,None,2024-03-21 18h54.02.735182 -0300,
0,0,0,0,,,,,,,,,,,,,,,,,0,0,0,0,4,0,4,0,,,,,,,,,26.074678586001028,,,,,,,,,,,,,,,,,,,,,,,,,,,,,,,,,,,,,,,,,,26.030962264001573,26.031011609000416,26.0310218350005,26.031041063000885,,,,,,,,,,,,,,,,,,,,,,,,,,,,,870145,001,2024-03-21_18h53.55.186,Test1,2023.2.3,None,2024-03-21 18h54.02.735182 -0300,
0,0,0,0,,,,,,,,,,,,,,,,,0,0,0,0,5,0,5,0,,,,,,,,,26.074678586001028,,,,,,,,,,,,,,,,,,,,,,,,,,,,,,,,,,,,,,,,,,26.031255637000868,26.031304417001593,26.031314611000198,26.03133307400094,,,,,,,,,,,,,,,,,,,,,,,,,,,,,870145,001,2024-03-21_18h53.55.186,Test1,2023.2.3,None,2024-03-21 18h54.02.735182 -0300,
0,0,0,0,,,,,,,,,,,,,,,,,0,0,0,0,6,0,6,0,,,,,,,,,26.074678586001028,,,,,,,,,,,,,,,,,,,,,,,,,,,,,,,,,,,,,,,,,,26.0315468960016,26.031596206001268,26.031605988000592,26.031625483001335,,,,,,,,,,,,,,,,,,,,,,,,,,,,,870145,001,2024-03-21_18h53.55.186,Test1,2023.2.3,None,2024-03-21 18h54.02.735182 -0300,
0,0,0,0,,,,,,,,,,,,,,,,,0,0,0,0,7,0,7,0,,,,,,,,,26.074678586001028,,,,,,,,,,,,,,,,,,,,,,,,,,,,,,,,,,,,,,,,,,26.031836234000366,26.031882999001027,26.03189263100103,26.031911667001623,,,,,,,,,,,,,,,,,,,,,,,,,,,,,870145,001,2024-03-21_18h53.55.186,Test1,2023.2.3,None,2024-03-21 18h54.02.735182 -0300,
0,0,0,0,,,,,,,,,,,,,,,,,0,0,0,0,8,0,8,0,,,,,,,,,26.074678586001028,,,,,,,,,,,,,,,,,,,,,,,,,,,,,,,,,,,,,,,,,,26.032122361000802,26.032169892001548,26.032180001000597,26.03219880800134,,,,,,,,,,,,,,,,,,,,,,,,,,,,,870145,001,2024-03-21_18h53.55.186,Test1,2023.2.3,None,2024-03-21 18h54.02.735182 -0300,
0,0,0,0,,,,,,,,,,,,,,,,,0,0,0,0,9,0,9,0,,,,,,,,,26.074678586001028,,,,,,,,,,,,,,,,,,,,,,,,,,,,,,,,,,,,,,,,,,26.0324746210008,26.03259529100069,26.032609316000162,26.032630793000862,,,,,,,,,,,,,,,,,,,,,,,,,,,,,870145,001,2024-03-21_18h53.55.186,Test1,2023.2.3,None,2024-03-21 18h54.02.735182 -0300,
0,0,0,0,,,,,,,,,,,,,,,,,0,0,0,0,,,,,,,,,,,,,,,,,,,,,,,,,,,,,,,,,,,,,,,,,,,,,,,,,,,,,,,,,,,,,,,,,,,,,,,,,,,,,,,,,,,,,,,870145,001,2024-03-21_18h53.55.186,Test1,2023.2.3,None,2024-03-21 18h54.02.735182 -0300,
0,0,0,0,,,,,,,,,,,,,,,,,1,0,1,0,0,0,0,0,,,,,,,,,26.074678586001028,,,,,,,,,,,,,,,,,,,,,,,,,,,,,,,,,,,,,,,,,,26.033656081001027,26.033722786,26.033735696000804,26.033756165999876,,,,,,,,,,,,,,,,,,,,,,,,,,,,,870145,001,2024-03-21_18h53.55.186,Test1,2023.2.3,None,2024-03-21 18h54.02.735182 -0300,
0,0,0,0,,,,,,,,,,,,,,,,,1,0,1,0,1,0,1,0,,,,,,,,,26.074678586001028,,,,,,,,,,,,,,,,,,,,,,,,,,,,,,,,,,,,,,,,,,26.0339909860013,26.03404178600067,26.03405240700158,26.034071374000632,,,,,,,,,,,,,,,,,,,,,,,,,,,,,870145,001,2024-03-21_18h53.55.186,Test1,2023.2.3,None,2024-03-21 18h54.02.735182 -0300,
0,0,0,0,,,,,,,,,,,,,,,,,1,0,1,0,2,0,2,0,,,,,,,,,26.074678586001028,,,,,,,,,,,,,,,,,,,,,,,,,,,,,,,,,,,,,,,,,,26.034331137001573,26.034373784999843,26.03438235500107,26.03439846600122,,,,,,,,,,,,,,,,,,,,,,,,,,,,,870145,001,2024-03-21_18h53.55.186,Test1,2023.2.3,None,2024-03-21 18h54.02.735182 -0300,
0,0,0,0,,,,,,,,,,,,,,,,,1,0,1,0,3,0,3,0,,,,,,,,,26.074678586001028,,,,,,,,,,,,,,,,,,,,,,,,,,,,,,,,,,,,,,,,,,26.034583774000566,26.034626612001375,26.034635207000974,26.034651931000553,,,,,,,,,,,,,,,,,,,,,,,,,,,,,870145,001,2024-03-21_18h53.55.186,Test1,2023.2.3,None,2024-03-21 18h54.02.735182 -0300,
0,0,0,0,,,,,,,,,,,,,,,,,1,0,1,0,4,0,4,0,,,,,,,,,26.074678586001028,,,,,,,,,,,,,,,,,,,,,,,,,,,,,,,,,,,,,,,,,,26.034839546000512,26.0348806230013,26.034888834999947,26.03490445100033,,,,,,,,,,,,,,,,,,,,,,,,,,,,,870145,001,2024-03-21_18h53.55.186,Test1,2023.2.3,None,2024-03-21 18h54.02.735182 -0300,
0,0,0,0,,,,,,,,,,,,,,,,,1,0,1,0,5,0,5,0,,,,,,,,,26.074678586001028,,,,,,,,,,,,,,,,,,,,,,,,,,,,,,,,,,,,,,,,,,26.035108301000946,26.03515057200093,26.03515913600131,26.03517489600017,,,,,,,,,,,,,,,,,,,,,,,,,,,,,870145,001,2024-03-21_18h53.55.186,Test1,2023.2.3,None,2024-03-21 18h54.02.735182 -0300,
0,0,0,0,,,,,,,,,,,,,,,,,1,0,1,0,6,0,6,0,,,,,,,,,26.074678586001028,,,,,,,,,,,,,,,,,,,,,,,,,,,,,,,,,,,,,,,,,,26.035360301000765,26.03540185700149,26.035410204000073,26.035426046000794,,,,,,,,,,,,,,,,,,,,,,,,,,,,,870145,001,2024-03-21_18h53.55.186,Test1,2023.2.3,None,2024-03-21 18h54.02.735182 -0300,
0,0,0,0,,,,,,,,,,,,,,,,,1,0,1,0,7,0,7,0,,,,,,,,,26.074678586001028,,,,,,,,,,,,,,,,,,,,,,,,,,,,,,,,,,,,,,,,,,26.035611631001302,26.035650910000186,26.03565931600133,26.035674568000104,,,,,,,,,,,,,,,,,,,,,,,,,,,,,870145,001,2024-03-21_18h53.55.186,Test1,2023.2.3,None,2024-03-21 18h54.02.735182 -0300,
0,0,0,0,,,,,,,,,,,,,,,,,1,0,1,0,8,0,8,0,,,,,,,,,26.074678586001028,,,,,,,,,,,,,,,,,,,,,,,,,,,,,,,,,,,,,,,,,,26.035857280001437,26.035897282001315,26.035905709000872,26.035921493001297,,,,,,,,,,,,,,,,,,,,,,,,,,,,,870145,001,2024-03-21_18h53.55.186,Test1,2023.2.3,None,2024-03-21 18h54.02.735182 -0300,
0,0,0,0,,,,,,,,,,,,,,,,,1,0,1,0,9,0,9,0,,,,,,,,,26.074678586001028,,,,,,,,,,,,,,,,,,,,,,,,,,,,,,,,,,,,,,,,,,26.03610406200096,26.036149477000436,26.036157921000267,26.036173597000015,,,,,,,,,,,,,,,,,,,,,,,,,,,,,870145,001,2024-03-21_18h53.55.186,Test1,2023.2.3,None,2024-03-21 18h54.02.735182 -0300,
0,0,0,0,,,,,,,,,,,,,,,,,1,0,1,0,,,,,,,,,,,,,,,,,,,,,,,,,,,,,,,,,,,,,,,,,,,,,,,,,,,,,,,,,,,,,,,,,,,,,,,,,,,,,,,,,,,,,,,870145,001,2024-03-21_18h53.55.186,Test1,2023.2.3,None,2024-03-21 18h54.02.735182 -0300,
0,0,0,0,,,,,,,,,,,,,,,,,2,0,2,0,0,0,0,0,,,,,,,,,26.074678586001028,,,,,,,,,,,,,,,,,,,,,,,,,,,,,,,,,,,,,,,,,,26.036986476001402,26.03703828200014,26.0370476650005,26.037068696999995,,,,,,,,,,,,,,,,,,,,,,,,,,,,,870145,001,2024-03-21_18h53.55.186,Test1,2023.2.3,None,2024-03-21 18h54.02.735182 -0300,
0,0,0,0,,,,,,,,,,,,,,,,,2,0,2,0,1,0,1,0,,,,,,,,,26.074678586001028,,,,,,,,,,,,,,,,,,,,,,,,,,,,,,,,,,,,,,,,,,26.037262025000018,26.03730394300146,26.037312424001357,26.037328046000766,,,,,,,,,,,,,,,,,,,,,,,,,,,,,870145,001,2024-03-21_18h53.55.186,Test1,2023.2.3,None,2024-03-21 18h54.02.735182 -0300,
0,0,0,0,,,,,,,,,,,,,,,,,2,0,2,0,2,0,2,0,,,,,,,,,26.074678586001028,,,,,,,,,,,,,,,,,,,,,,,,,,,,,,,,,,,,,,,,,,26.037508641000386,26.037549493999904,26.037557893001576,26.037573658000838,,,,,,,,,,,,,,,,,,,,,,,,,,,,,870145,001,2024-03-21_18h53.55.186,Test1,2023.2.3,None,2024-03-21 18h54.02.735182 -0300,
0,0,0,0,,,,,,,,,,,,,,,,,2,0,2,0,3,0,3,0,,,,,,,,,26.074678586001028,,,,,,,,,,,,,,,,,,,,,,,,,,,,,,,,,,,,,,,,,,26.0377556930016,26.037797364000653,26.037805772000866,26.037821152000106,,,,,,,,,,,,,,,,,,,,,,,,,,,,,870145,001,2024-03-21_18h53.55.186,Test1,2023.2.3,None,2024-03-21 18h54.02.735182 -0300,
0,0,0,0,,,,,,,,,,,,,,,,,2,0,2,0,4,0,4,0,,,,,,,,,26.074678586001028,,,,,,,,,,,,,,,,,,,,,,,,,,,,,,,,,,,,,,,,,,26.03800525600127,26.038044621000154,26.038052994999816,26.038068572001066,,,,,,,,,,,,,,,,,,,,,,,,,,,,,870145,001,2024-03-21_18h53.55.186,Test1,2023.2.3,None,2024-03-21 18h54.02.735182 -0300,
0,0,0,0,,,,,,,,,,,,,,,,,2,0,2,0,5,0,5,0,,,,,,,,,26.074678586001028,,,,,,,,,,,,,,,,,,,,,,,,,,,,,,,,,,,,,,,,,,26.038244792000114,26.038283665000563,26.03829193599995,26.038307018001433,,,,,,,,,,,,,,,,,,,,,,,,,,,,,870145,001,2024-03-21_18h53.55.186,Test1,2023.2.3,None,2024-03-21 18h54.02.735182 -0300,
0,0,0,0,,,,,,,,,,,,,,,,,2,0,2,0,6,0,6,0,,,,,,,,,26.074678586001028,,,,,,,,,,,,,,,,,,,,,,,,,,,,,,,,,,,,,,,,,,26.03848666400154,26.038526872000148,26.038535215000593,26.03855803100123,,,,,,,,,,,,,,,,,,,,,,,,,,,,,870145,001,2024-03-21_18h53.55.186,Test1,2023.2.3,None,2024-03-21 18h54.02.735182 -0300,
0,0,0,0,,,,,,,,,,,,,,,,,2,0,2,0,7,0,7,0,,,,,,,,,26.074678586001028,,,,,,,,,,,,,,,,,,,,,,,,,,,,,,,,,,,,,,,,,,26.038739285000702,26.03878111800077,26.038789579000877,26.038805370000773,,,,,,,,,,,,,,,,,,,,,,,,,,,,,870145,001,2024-03-21_18h53.55.186,Test1,2023.2.3,None,2024-03-21 18h54.02.735182 -0300,
0,0,0,0,,,,,,,,,,,,,,,,,2,0,2,0,8,0,8,0,,,,,,,,,26.074678586001028,,,,,,,,,,,,,,,,,,,,,,,,,,,,,,,,,,,,,,,,,,26.038980086001175,26.039020294001602,26.039028598001096,26.03904404900095,,,,,,,,,,,,,,,,,,,,,,,,,,,,,870145,001,2024-03-21_18h53.55.186,Test1,2023.2.3,None,2024-03-21 18h54.02.735182 -0300,
0,0,0,0,,,,,,,,,,,,,,,,,2,0,2,0,9,0,9,0,,,,,,,,,26.074678586001028,,,,,,,,,,,,,,,,,,,,,,,,,,,,,,,,,,,,,,,,,,26.039223100000527,26.03926655000032,26.03927499600104,26.039303496001594,,,,,,,,,,,,,,,,,,,,,,,,,,,,,870145,001,2024-03-21_18h53.55.186,Test1,2023.2.3,None,2024-03-21 18h54.02.735182 -0300,
0,0,0,0,,,,,,,,,,,,,,,,,2,0,2,0,,,,,,,,,,,,,,,,,,,,,,,,,,,,,,,,,,,,,,,,,,,,,,,,,,,,,,,,,,,,,,,,,,,,,,,,,,,,,,,,,,,,,,,870145,001,2024-03-21_18h53.55.186,Test1,2023.2.3,None,2024-03-21 18h54.02.735182 -0300,
0,0,0,0,,,,,,,,,,,,,,,,,3,0,3,0,0,0,0,0,,,,,,,,,26.074678586001028,,,,,,,,,,,,,,,,,,,,,,,,,,,,,,,,,,,,,,,,,,26.04001312699984,26.04006238400143,26.04007205600101,26.04008780500044,,,,,,,,,,,,,,,,,,,,,,,,,,,,,870145,001,2024-03-21_18h53.55.186,Test1,2023.2.3,None,2024-03-21 18h54.02.735182 -0300,
0,0,0,0,,,,,,,,,,,,,,,,,3,0,3,0,1,0,1,0,,,,,,,,,26.074678586001028,,,,,,,,,,,,,,,,,,,,,,,,,,,,,,,,,,,,,,,,,,26.040266390000397,26.04030438100017,26.04031223000129,26.040326611000637,,,,,,,,,,,,,,,,,,,,,,,,,,,,,870145,001,2024-03-21_18h53.55.186,Test1,2023.2.3,None,2024-03-21 18h54.02.735182 -0300,
0,0,0,0,,,,,,,,,,,,,,,,,3,0,3,0,2,0,2,0,,,,,,,,,26.074678586001028,,,,,,,,,,,,,,,,,,,,,,,,,,,,,,,,,,,,,,,,,,26.040509217000363,26.040549254001235,26.04055703999984,26.040574051001386,,,,,,,,,,,,,,,,,,,,,,,,,,,,,870145,001,2024-03-21_18h53.55.186,Test1,2023.2.3,None,2024-03-21 18h54.02.735182 -0300,
0,0,0,0,,,,,,,,,,,,,,,,,3,0,3,0,3,0,3,0,,,,,,,,,26.074678586001028,,,,,,,,,,,,,,,,,,,,,,,,,,,,,,,,,,,,,,,,,,26.040733902000284,26.04076984600033,26.040777592001177,26.040791396000714,,,,,,,,,,,,,,,,,,,,,,,,,,,,,870145,001,2024-03-21_18h53.55.186,Test1,2023.2.3,None,2024-03-21 18h54.02.735182 -0300,
0,0,0,0,,,,,,,,,,,,,,,,,3,0,3,0,4,0,4,0,,,,,,,,,26.074678586001028,,,,,,,,,,,,,,,,,,,,,,,,,,,,,,,,,,,,,,,,,,26.040955417000077,26.040995261000717,26.041002761001437,26.0410176660007,,,,,,,,,,,,,,,,,,,,,,,,,,,,,870145,001,2024-03-21_18h53.55.186,Test1,2023.2.3,None,2024-03-21 18h54.02.735182 -0300,
0,0,0,0,,,,,,,,,,,,,,,,,3,0,3,0,5,0,5,0,,,,,,,,,26.074678586001028,,,,,,,,,,,,,,,,,,,,,,,,,,,,,,,,,,,,,,,,,,26.04123066000102,26.04127286000039,26.041280592000476,26.041295687000456,,,,,,,,,,,,,,,,,,,,,,,,,,,,,870145,001,2024-03-21_18h53.55.186,Test1,2023.2.3,None,2024-03-21 18h54.02.735182 -0300,
0,0,0,0,,,,,,,,,,,,,,,,,3,0,3,0,6,0,6,0,,,,,,,,,26.074678586001028,,,,,,,,,,,,,,,,,,,,,,,,,,,,,,,,,,,,,,,,,,26.041454001000602,26.041490682000585,26.041498104999846,26.041512819001582,,,,,,,,,,,,,,,,,,,,,,,,,,,,,870145,001,2024-03-21_18h53.55.186,Test1,2023.2.3,None,2024-03-21 18h54.02.735182 -0300,
0,0,0,0,,,,,,,,,,,,,,,,,3,0,3,0,7,0,7,0,,,,,,,,,26.074678586001028,,,,,,,,,,,,,,,,,,,,,,,,,,,,,,,,,,,,,,,,,,26.041674285001136,26.041712561000168,26.04172011100127,26.041734542000995,,,,,,,,,,,,,,,,,,,,,,,,,,,,,870145,001,2024-03-21_18h53.55.186,Test1,2023.2.3,None,2024-03-21 18h54.02.735182 -0300,
0,0,0,0,,,,,,,,,,,,,,,,,3,0,3,0,8,0,8,0,,,,,,,,,26.074678586001028,,,,,,,,,,,,,,,,,,,,,,,,,,,,,,,,,,,,,,,,,,26.041891064000083,26.041933268999855,26.04194093100159,26.04195584199988,,,,,,,,,,,,,,,,,,,,,,,,,,,,,870145,001,2024-03-21_18h53.55.186,Test1,2023.2.3,None,2024-03-21 18h54.02.735182 -0300,
0,0,0,0,,,,,,,,,,,,,,,,,3,0,3,0,9,0,9,0,,,,,,,,,26.074678586001028,,,,,,,,,,,,,,,,,,,,,,,,,,,,,,,,,,,,,,,,,,26.042113171000892,26.042149255999902,26.042156626001088,26.0421750960013,,,,,,,,,,,,,,,,,,,,,,,,,,,,,870145,001,2024-03-21_18h53.55.186,Test1,2023.2.3,None,2024-03-21 18h54.02.735182 -0300,
0,0,0,0,,,,,,,,,,,,,,,,,3,0,3,0,,,,,,,,,,,,,,,,,,,,,,,,,,,,,,,,,,,,,,,,,,,,,,,,,,,,,,,,,,,,,,,,,,,,,,,,,,,,,,,,,,,,,,,870145,001,2024-03-21_18h53.55.186,Test1,2023.2.3,None,2024-03-21 18h54.02.735182 -0300,
0,0,0,0,,,,,,,,,,,,,,,,,4,0,4,0,0,0,0,0,,,,,,,,,26.074678586001028,,,,,,,,,,,,,,,,,,,,,,,,,,,,,,,,,,,,,,,,,,26.04287220000151,26.042917304001094,26.04292582600101,26.04294102899985,,,,,,,,,,,,,,,,,,,,,,,,,,,,,870145,001,2024-03-21_18h53.55.186,Test1,2023.2.3,None,2024-03-21 18h54.02.735182 -0300,
0,0,0,0,,,,,,,,,,,,,,,,,4,0,4,0,1,0,1,0,,,,,,,,,26.074678586001028,,,,,,,,,,,,,,,,,,,,,,,,,,,,,,,,,,,,,,,,,,26.043106243001603,26.04314449100093,26.04315200700148,26.043166138000743,,,,,,,,,,,,,,,,,,,,,,,,,,,,,870145,001,2024-03-21_18h53.55.186,Test1,2023.2.3,None,2024-03-21 18h54.02.735182 -0300,
0,0,0,0,,,,,,,,,,,,,,,,,4,0,4,0,2,0,2,0,,,,,,,,,26.074678586001028,,,,,,,,,,,,,,,,,,,,,,,,,,,,,,,,,,,,,,,,,,26.043323208999936,26.043360004001443,26.04336734300159,26.043381533001593,,,,,,,,,,,,,,,,,,,,,,,,,,,,,870145,001,2024-03-21_18h53.55.186,Test1,2023.2.3,None,2024-03-21 18h54.02.735182 -0300,
0,0,0,0,,,,,,,,,,,,,,,,,4,0,4,0,3,0,3,0,,,,,,,,,26.074678586001028,,,,,,,,,,,,,,,,,,,,,,,,,,,,,,,,,,,,,,,,,,26.043540532000407,26.04357694600003,26.04358437800147,26.043598922000456,,,,,,,,,,,,,,,,,,,,,,,,,,,,,870145,001,2024-03-21_18h53.55.186,Test1,2023.2.3,None,2024-03-21 18h54.02.735182 -0300,
0,0,0,0,,,,,,,,,,,,,,,,,4,0,4,0,4,0,4,0,,,,,,,,,26.074678586001028,,,,,,,,,,,,,,,,,,,,,,,,,,,,,,,,,,,,,,,,,,26.04375698200056,26.04379246999997,26.043799752000268,26.04381370400006,,,,,,,,,,,,,,,,,,,,,,,,,,,,,870145,001,2024-03-21_18h53.55.186,Test1,2023.2.3,None,2024-03-21 18h54.02.735182 -0300,
0,0,0,0,,,,,,,,,,,,,,,,,4,0,4,0,5,0,5,0,,,,,,,,,26.074678586001028,,,,,,,,,,,,,,,,,,,,,,,,,,,,,,,,,,,,,,,,,,26.043970226000965,26.044005454001308,26.044012580001436,26.044026642000972,,,,,,,,,,,,,,,,,,,,,,,,,,,,,870145,001,2024-03-21_18h53.55.186,Test1,2023.2.3,None,2024-03-21 18h54.02.735182 -0300,
0,0,0,0,,,,,,,,,,,,,,,,,4,0,4,0,6,0,6,0,,,,,,,,,26.074678586001028,,,,,,,,,,,,,,,,,,,,,,,,,,,,,,,,,,,,,,,,,,26.04418323200116,26.044219171000805,26.04422637100106,26.044240654000532,,,,,,,,,,,,,,,,,,,,,,,,,,,,,870145,001,2024-03-21_18h53.55.186,Test1,2023.2.3,None,2024-03-21 18h54.02.735182 -0300,
0,0,0,0,,,,,,,,,,,,,,,,,4,0,4,0,7,0,7,0,,,,,,,,,26.074678586001028,,,,,,,,,,,,,,,,,,,,,,,,,,,,,,,,,,,,,,,,,,26.04439492900019,26.04442999100138,26.044437381000535,26.04445171900079,,,,,,,,,,,,,,,,,,,,,,,,,,,,,870145,001,2024-03-21_18h53.55.186,Test1,2023.2.3,None,2024-03-21 18h54.02.735182 -0300,
0,0,0,0,,,,,,,,,,,,,,,,,4,0,4,0,8,0,8,0,,,,,,,,,26.074678586001028,,,,,,,,,,,,,,,,,,,,,,,,,,,,,,,,,,,,,,,,,,26.04460167900106,26.044637319000685,26.044644292000157,26.04465849100052,,,,,,,,,,,,,,,,,,,,,,,,,,,,,870145,001,2024-03-21_18h53.55.186,Test1,2023.2.3,None,2024-03-21 18h54.02.735182 -0300,
0,0,0,0,,,,,,,,,,,,,,,,,4,0,4,0,9,0,9,0,,,,,,,,,26.074678586001028,,,,,,,,,,,,,,,,,,,,,,,,,,,,,,,,,,,,,,,,,,26.04481468599988,26.044850186000986,26.044857380000394,26.04487151000103,,,,,,,,,,,,,,,,,,,,,,,,,,,,,870145,001,2024-03-21_18h53.55.186,Test1,2023.2.3,None,2024-03-21 18h54.02.735182 -0300,
0,0,0,0,,,,,,,,,,,,,,,,,4,0,4,0,,,,,,,,,,,,,,,,,,,,,,,,,,,,,,,,,,,,,,,,,,,,,,,,,,,,,,,,,,,,,,,,,,,,,,,,,,,,,,,,,,,,,,,870145,001,2024-03-21_18h53.55.186,Test1,2023.2.3,None,2024-03-21 18h54.02.735182 -0300,
0,0,0,0,,,,,,,,,,,,,,,,,5,0,5,0,0,0,0,0,,,,,,,,,26.074678586001028,,,,,,,,,,,,,,,,,,,,,,,,,,,,,,,,,,,,,,,,,,26.04555897300088,26.045607271000335,26.04561524700148,26.045630092001375,,,,,,,,,,,,,,,,,,,,,,,,,,,,,870145,001,2024-03-21_18h53.55.186,Test1,2023.2.3,None,2024-03-21 18h54.02.735182 -0300,
0,0,0,0,,,,,,,,,,,,,,,,,5,0,5,0,1,0,1,0,,,,,,,,,26.074678586001028,,,,,,,,,,,,,,,,,,,,,,,,,,,,,,,,,,,,,,,,,,26.045792646000336,26.04582820900032,26.0458378910007,26.0458525009999,,,,,,,,,,,,,,,,,,,,,,,,,,,,,870145,001,2024-03-21_18h53.55.186,Test1,2023.2.3,None,2024-03-21 18h54.02.735182 -0300,
0,0,0,0,,,,,,,,,,,,,,,,,5,0,5,0,2,0,2,0,,,,,,,,,26.074678586001028,,,,,,,,,,,,,,,,,,,,,,,,,,,,,,,,,,,,,,,,,,26.046004695001102,26.046040131001064,26.046047111000007,26.046061189001193,,,,,,,,,,,,,,,,,,,,,,,,,,,,,870145,001,2024-03-21_18h53.55.186,Test1,2023.2.3,None,2024-03-21 18h54.02.735182 -0300,
0,0,0,0,,,,,,,,,,,,,,,,,5,0,5,0,3,0,3,0,,,,,,,,,26.074678586001028,,,,,,,,,,,,,,,,,,,,,,,,,,,,,,,,,,,,,,,,,,26.046211161001338,26.0462455650013,26.046252656000433,26.046266563000245,,,,,,,,,,,,,,,,,,,,,,,,,,,,,870145,001,2024-03-21_18h53.55.186,Test1,2023.2.3,None,2024-03-21 18h54.02.735182 -0300,
0,0,0,0,,,,,,,,,,,,,,,,,5,0,5,0,4,0,4,0,,,,,,,,,26.074678586001028,,,,,,,,,,,,,,,,,,,,,,,,,,,,,,,,,,,,,,,,,,26.046421972001554,26.04645659400012,26.046466951000184,26.046481109000524,,,,,,,,,,,,,,,,,,,,,,,,,,,,,870145,001,2024-03-21_18h53.55.186,Test1,2023.2.3,None,2024-03-21 18h54.02.735182 -0300,
0,0,0,0,,,,,,,,,,,,,,,,,5,0,5,0,5,0,5,0,,,,,,,,,26.074678586001028,,,,,,,,,,,,,,,,,,,,,,,,,,,,,,,,,,,,,,,,,,26.046630319000542,26.046664927000165,26.04667214500114,26.046686146000866,,,,,,,,,,,,,,,,,,,,,,,,,,,,,870145,001,2024-03-21_18h53.55.186,Test1,2023.2.3,None,2024-03-21 18h54.02.735182 -0300,
0,0,0,0,,,,,,,,,,,,,,,,,5,0,5,0,6,0,6,0,,,,,,,,,26.074678586001028,,,,,,,,,,,,,,,,,,,,,,,,,,,,,,,,,,,,,,,,,,26.04683366900099,26.046871718001057,26.04687888800072,26.046892464000848,,,,,,,,,,,,,,,,,,,,,,,,,,,,,870145,001,2024-03-21_18h53.55.186,Test1,2023.2.3,None,2024-03-21 18h54.02.735182 -0300,
0,0,0,0,,,,,,,,,,,,,,,,,5,0,5,0,7,0,7,0,,,,,,,,,26.074678586001028,,,,,,,,,,,,,,,,,,,,,,,,,,,,,,,,,,,,,,,,,,26.04704432300059,26.047079671001484,26.047089989000597,26.04710417500064,,,,,,,,,,,,,,,,,,,,,,,,,,,,,870145,001,2024-03-21_18h53.55.186,Test1,2023.2.3,None,2024-03-21 18h54.02.735182 -0300,
0,0,0,0,,,,,,,,,,,,,,,,,5,0,5,0,8,0,8,0,,,,,,,,,26.074678586001028,,,,,,,,,,,,,,,,,,,,,,,,,,,,,,,,,,,,,,,,,,26.04725198900087,26.047289892001572,26.047297040000558,26.04731086100037,,,,,,,,,,,,,,,,,,,,,,,,,,,,,870145,001,2024-03-21_18h53.55.186,Test1,2023.2.3,None,2024-03-21 18h54.02.735182 -0300,
0,0,0,0,,,,,,,,,,,,,,,,,5,0,5,0,9,0,9,0,,,,,,,,,26.074678586001028,,,,,,,,,,,,,,,,,,,,,,,,,,,,,,,,,,,,,,,,,,26.047471429001234,26.047507826000583,26.047514924001007,26.047528349001368,,,,,,,,,,,,,,,,,,,,,,,,,,,,,870145,001,2024-03-21_18h53.55.186,Test1,2023.2.3,None,2024-03-21 18h54.02.735182 -0300,
0,0,0,0,,,,,,,,,,,,,,,,,5,0,5,0,,,,,,,,,,,,,,,,,,,,,,,,,,,,,,,,,,,,,,,,,,,,,,,,,,,,,,,,,,,,,,,,,,,,,,,,,,,,,,,,,,,,,,,870145,001,2024-03-21_18h53.55.186,Test1,2023.2.3,None,2024-03-21 18h54.02.735182 -0300,
0,0,0,0,,,,,,,,,,,,,,,,,6,0,6,0,0,0,0,0,,,,,,,,,26.074678586001028,,,,,,,,,,,,,,,,,,,,,,,,,,,,,,,,,,,,,,,,,,26.048158906000026,26.04820306000147,26.04821078600071,26.04822529000012,,,,,,,,,,,,,,,,,,,,,,,,,,,,,870145,001,2024-03-21_18h53.55.186,Test1,2023.2.3,None,2024-03-21 18h54.02.735182 -0300,
0,0,0,0,,,,,,,,,,,,,,,,,6,0,6,0,1,0,1,0,,,,,,,,,26.074678586001028,,,,,,,,,,,,,,,,,,,,,,,,,,,,,,,,,,,,,,,,,,26.04837650599984,26.04841482700067,26.048422149000544,26.048435656000947,,,,,,,,,,,,,,,,,,,,,,,,,,,,,870145,001,2024-03-21_18h53.55.186,Test1,2023.2.3,None,2024-03-21 18h54.02.735182 -0300,
0,0,0,0,,,,,,,,,,,,,,,,,6,0,6,0,2,0,2,0,,,,,,,,,26.074678586001028,,,,,,,,,,,,,,,,,,,,,,,,,,,,,,,,,,,,,,,,,,26.048590746000627,26.04862479000076,26.048631766001563,26.048648433999915,,,,,,,,,,,,,,,,,,,,,,,,,,,,,870145,001,2024-03-21_18h53.55.186,Test1,2023.2.3,None,2024-03-21 18h54.02.735182 -0300,
0,0,0,0,,,,,,,,,,,,,,,,,6,0,6,0,3,0,3,0,,,,,,,,,26.074678586001028,,,,,,,,,,,,,,,,,,,,,,,,,,,,,,,,,,,,,,,,,,26.048799901000166,26.048834020000868,26.048841194000488,26.048854657999982,,,,,,,,,,,,,,,,,,,,,,,,,,,,,870145,001,2024-03-21_18h53.55.186,Test1,2023.2.3,None,2024-03-21 18h54.02.735182 -0300,
0,0,0,0,,,,,,,,,,,,,,,,,6,0,6,0,4,0,4,0,,,,,,,,,26.074678586001028,,,,,,,,,,,,,,,,,,,,,,,,,,,,,,,,,,,,,,,,,,26.049004664000677,26.0490416749999,26.049048996001147,26.0491032000009,,,,,,,,,,,,,,,,,,,,,,,,,,,,,870145,001,2024-03-21_18h53.55.186,Test1,2023.2.3,None,2024-03-21 18h54.02.735182 -0300,
0,0,0,0,,,,,,,,,,,,,,,,,6,0,6,0,5,0,5,0,,,,,,,,,26.074678586001028,,,,,,,,,,,,,,,,,,,,,,,,,,,,,,,,,,,,,,,,,,26.049355858000126,26.049397333999877,26.0494054460014,26.049424460999944,,,,,,,,,,,,,,,,,,,,,,,,,,,,,870145,001,2024-03-21_18h53.55.186,Test1,2023.2.3,None,2024-03-21 18h54.02.735182 -0300,
0,0,0,0,,,,,,,,,,,,,,,,,6,0,6,0,6,0,6,0,,,,,,,,,26.074678586001028,,,,,,,,,,,,,,,,,,,,,,,,,,,,,,,,,,,,,,,,,,26.04958740300026,26.049625794999884,26.04963326899997,26.04964729600033,,,,,,,,,,,,,,,,,,,,,,,,,,,,,870145,001,2024-03-21_18h53.55.186,Test1,2023.2.3,None,2024-03-21 18h54.02.735182 -0300,
0,0,0,0,,,,,,,,,,,,,,,,,6,0,6,0,7,0,7,0,,,,,,,,,26.074678586001028,,,,,,,,,,,,,,,,,,,,,,,,,,,,,,,,,,,,,,,,,,26.049799467000412,26.04983885799993,26.049846180001623,26.049860058001286,,,,,,,,,,,,,,,,,,,,,,,,,,,,,870145,001,2024-03-21_18h53.55.186,Test1,2023.2.3,None,2024-03-21 18h54.02.735182 -0300,
0,0,0,0,,,,,,,,,,,,,,,,,6,0,6,0,8,0,8,0,,,,,,,,,26.074678586001028,,,,,,,,,,,,,,,,,,,,,,,,,,,,,,,,,,,,,,,,,,26.050017606001347,26.050059463001162,26.050066867001078,26.050091641000108,,,,,,,,,,,,,,,,,,,,,,,,,,,,,870145,001,2024-03-21_18h53.55.186,Test1,2023.2.3,None,2024-03-21 18h54.02.735182 -0300,
0,0,0,0,,,,,,,,,,,,,,,,,6,0,6,0,9,0,9,0,,,,,,,,,26.074678586001028,,,,,,,,,,,,,,,,,,,,,,,,,,,,,,,,,,,,,,,,,,26.050245354001163,26.050279627001146,26.050286761999814,26.050300243001402,,,,,,,,,,,,,,,,,,,,,,,,,,,,,870145,001,2024-03-21_18h53.55.186,Test1,2023.2.3,None,2024-03-21 18h54.02.735182 -0300,
0,0,0,0,,,,,,,,,,,,,,,,,6,0,6,0,,,,,,,,,,,,,,,,,,,,,,,,,,,,,,,,,,,,,,,,,,,,,,,,,,,,,,,,,,,,,,,,,,,,,,,,,,,,,,,,,,,,,,,870145,001,2024-03-21_18h53.55.186,Test1,2023.2.3,None,2024-03-21 18h54.02.735182 -0300,
0,0,0,0,,,,,,,,,,,,,,,,,7,0,7,0,0,0,0,0,,,,,,,,,26.074678586001028,,,,,,,,,,,,,,,,,,,,,,,,,,,,,,,,,,,,,,,,,,26.050960615000804,26.051008555001317,26.051016631001403,26.05103365100149,,,,,,,,,,,,,,,,,,,,,,,,,,,,,870145,001,2024-03-21_18h53.55.186,Test1,2023.2.3,None,2024-03-21 18h54.02.735182 -0300,
0,0,0,0,,,,,,,,,,,,,,,,,7,0,7,0,1,0,1,0,,,,,,,,,26.074678586001028,,,,,,,,,,,,,,,,,,,,,,,,,,,,,,,,,,,,,,,,,,26.051185886000894,26.051220959001512,26.05122821199984,26.051242242001535,,,,,,,,,,,,,,,,,,,,,,,,,,,,,870145,001,2024-03-21_18h53.55.186,Test1,2023.2.3,None,2024-03-21 18h54.02.735182 -0300,
0,0,0,0,,,,,,,,,,,,,,,,,7,0,7,0,2,0,2,0,,,,,,,,,26.074678586001028,,,,,,,,,,,,,,,,,,,,,,,,,,,,,,,,,,,,,,,,,,26.05139000700001,26.05142452200016,26.051431507001325,26.051444983000692,,,,,,,,,,,,,,,,,,,,,,,,,,,,,870145,001,2024-03-21_18h53.55.186,Test1,2023.2.3,None,2024-03-21 18h54.02.735182 -0300,
0,0,0,0,,,,,,,,,,,,,,,,,7,0,7,0,3,0,3,0,,,,,,,,,26.074678586001028,,,,,,,,,,,,,,,,,,,,,,,,,,,,,,,,,,,,,,,,,,26.051593900001535,26.051632103000884,26.051639340999827,26.051655648001542,,,,,,,,,,,,,,,,,,,,,,,,,,,,,870145,001,2024-03-21_18h53.55.186,Test1,2023.2.3,None,2024-03-21 18h54.02.735182 -0300,
0,0,0,0,,,,,,,,,,,,,,,,,7,0,7,0,4,0,4,0,,,,,,,,,26.074678586001028,,,,,,,,,,,,,,,,,,,,,,,,,,,,,,,,,,,,,,,,,,26.051803997001116,26.051838127001247,26.051845146001142,26.051858677999917,,,,,,,,,,,,,,,,,,,,,,,,,,,,,870145,001,2024-03-21_18h53.55.186,Test1,2023.2.3,None,2024-03-21 18h54.02.735182 -0300,
0,0,0,0,,,,,,,,,,,,,,,,,7,0,7,0,5,0,5,0,,,,,,,,,26.074678586001028,,,,,,,,,,,,,,,,,,,,,,,,,,,,,,,,,,,,,,,,,,26.05200264999985,26.052038334000827,26.052045417000045,26.052058702000068,,,,,,,,,,,,,,,,,,,,,,,,,,,,,870145,001,2024-03-21_18h53.55.186,Test1,2023.2.3,None,2024-03-21 18h54.02.735182 -0300,
0,0,0,0,,,,,,,,,,,,,,,,,7,0,7,0,6,0,6,0,,,,,,,,,26.074678586001028,,,,,,,,,,,,,,,,,,,,,,,,,,,,,,,,,,,,,,,,,,26.05220436000127,26.052238642001612,26.052245491000576,26.052262152001276,,,,,,,,,,,,,,,,,,,,,,,,,,,,,870145,001,2024-03-21_18h53.55.186,Test1,2023.2.3,None,2024-03-21 18h54.02.735182 -0300,
0,0,0,0,,,,,,,,,,,,,,,,,7,0,7,0,7,0,7,0,,,,,,,,,26.074678586001028,,,,,,,,,,,,,,,,,,,,,,,,,,,,,,,,,,,,,,,,,,26.052407476001463,26.052443253000092,26.052450007000516,26.052463490001173,,,,,,,,,,,,,,,,,,,,,,,,,,,,,870145,001,2024-03-21_18h53.55.186,Test1,2023.2.3,None,2024-03-21 18h54.02.735182 -0300,
0,0,0,0,,,,,,,,,,,,,,,,,7,0,7,0,8,0,8,0,,,,,,,,,26.074678586001028,,,,,,,,,,,,,,,,,,,,,,,,,,,,,,,,,,,,,,,,,,26.052605955001127,26.05263931800073,26.05264616900058,26.05265965400031,,,,,,,,,,,,,,,,,,,,,,,,,,,,,870145,001,2024-03-21_18h53.55.186,Test1,2023.2.3,None,2024-03-21 18h54.02.735182 -0300,
0,0,0,0,,,,,,,,,,,,,,,,,7,0,7,0,9,0,9,0,,,,,,,,,26.074678586001028,,,,,,,,,,,,,,,,,,,,,,,,,,,,,,,,,,,,,,,,,,26.05280461500115,26.05283823300124,26.052845089001494,26.052862037000523,,,,,,,,,,,,,,,,,,,,,,,,,,,,,870145,001,2024-03-21_18h53.55.186,Test1,2023.2.3,None,2024-03-21 18h54.02.735182 -0300,
0,0,0,0,,,,,,,,,,,,,,,,,7,0,7,0,,,,,,,,,,,,,,,,,,,,,,,,,,,,,,,,,,,,,,,,,,,,,,,,,,,,,,,,,,,,,,,,,,,,,,,,,,,,,,,,,,,,,,,870145,001,2024-03-21_18h53.55.186,Test1,2023.2.3,None,2024-03-21 18h54.02.735182 -0300,
0,0,0,0,,,,,,,,,,,,,,,,,8,0,8,0,0,0,0,0,,,,,,,,,26.074678586001028,,,,,,,,,,,,,,,,,,,,,,,,,,,,,,,,,,,,,,,,,,26.053507828000875,26.05354979399999,26.053558252000585,26.05357260100027,,,,,,,,,,,,,,,,,,,,,,,,,,,,,870145,001,2024-03-21_18h53.55.186,Test1,2023.2.3,None,2024-03-21 18h54.02.735182 -0300,
0,0,0,0,,,,,,,,,,,,,,,,,8,0,8,0,1,0,1,0,,,,,,,,,26.074678586001028,,,,,,,,,,,,,,,,,,,,,,,,,,,,,,,,,,,,,,,,,,26.05372285500016,26.0537619480001,26.05376961100046,26.053783774001204,,,,,,,,,,,,,,,,,,,,,,,,,,,,,870145,001,2024-03-21_18h53.55.186,Test1,2023.2.3,None,2024-03-21 18h54.02.735182 -0300,
0,0,0,0,,,,,,,,,,,,,,,,,8,0,8,0,2,0,2,0,,,,,,,,,26.074678586001028,,,,,,,,,,,,,,,,,,,,,,,,,,,,,,,,,,,,,,,,,,26.053934601000947,26.053968594000253,26.053978253001333,26.0539956800003,,,,,,,,,,,,,,,,,,,,,,,,,,,,,870145,001,2024-03-21_18h53.55.186,Test1,2023.2.3,None,2024-03-21 18h54.02.735182 -0300,
0,0,0,0,,,,,,,,,,,,,,,,,8,0,8,0,3,0,3,0,,,,,,,,,26.074678586001028,,,,,,,,,,,,,,,,,,,,,,,,,,,,,,,,,,,,,,,,,,26.054147908000232,26.05418721300157,26.054194370000914,26.054207944000154,,,,,,,,,,,,,,,,,,,,,,,,,,,,,870145,001,2024-03-21_18h53.55.186,Test1,2023.2.3,None,2024-03-21 18h54.02.735182 -0300,
0,0,0,0,,,,,,,,,,,,,,,,,8,0,8,0,4,0,4,0,,,,,,,,,26.074678586001028,,,,,,,,,,,,,,,,,,,,,,,,,,,,,,,,,,,,,,,,,,26.054359316000046,26.054393011001594,26.05439999600094,26.054414662001363,,,,,,,,,,,,,,,,,,,,,,,,,,,,,870145,001,2024-03-21_18h53.55.186,Test1,2023.2.3,None,2024-03-21 18h54.02.735182 -0300,
0,0,0,0,,,,,,,,,,,,,,,,,8,0,8,0,5,0,5,0,,,,,,,,,26.074678586001028,,,,,,,,,,,,,,,,,,,,,,,,,,,,,,,,,,,,,,,,,,26.054560284001127,26.05459357700056,26.054600737999863,26.054616849000013,,,,,,,,,,,,,,,,,,,,,,,,,,,,,870145,001,2024-03-21_18h53.55.186,Test1,2023.2.3,None,2024-03-21 18h54.02.735182 -0300,
0,0,0,0,,,,,,,,,,,,,,,,,8,0,8,0,6,0,6,0,,,,,,,,,26.074678586001028,,,,,,,,,,,,,,,,,,,,,,,,,,,,,,,,,,,,,,,,,,26.05475928800115,26.05479786200158,26.054804795001473,26.054818264999994,,,,,,,,,,,,,,,,,,,,,,,,,,,,,870145,001,2024-03-21_18h53.55.186,Test1,2023.2.3,None,2024-03-21 18h54.02.735182 -0300,
0,0,0,0,,,,,,,,,,,,,,,,,8,0,8,0,7,0,7,0,,,,,,,,,26.074678586001028,,,,,,,,,,,,,,,,,,,,,,,,,,,,,,,,,,,,,,,,,,26.054963696000414,26.054997201001243,26.05500402100006,26.055017321999912,,,,,,,,,,,,,,,,,,,,,,,,,,,,,870145,001,2024-03-21_18h53.55.186,Test1,2023.2.3,None,2024-03-21 18h54.02.735182 -0300,
0,0,0,0,,,,,,,,,,,,,,,,,8,0,8,0,8,0,8,0,,,,,,,,,26.074678586001028,,,,,,,,,,,,,,,,,,,,,,,,,,,,,,,,,,,,,,,,,,26.055162505001135,26.055195730001287,26.05520251500093,26.055215637999936,,,,,,,,,,,,,,,,,,,,,,,,,,,,,870145,001,2024-03-21_18h53.55.186,Test1,2023.2.3,None,2024-03-21 18h54.02.735182 -0300,
0,0,0,0,,,,,,,,,,,,,,,,,8,0,8,0,9,0,9,0,,,,,,,,,26.074678586001028,,,,,,,,,,,,,,,,,,,,,,,,,,,,,,,,,,,,,,,,,,26.055355956999847,26.055392080001184,26.055399449000106,26.055415548000383,,,,,,,,,,,,,,,,,,,,,,,,,,,,,870145,001,2024-03-21_18h53.55.186,Test1,2023.2.3,None,2024-03-21 18h54.02.735182 -0300,
0,0,0,0,,,,,,,,,,,,,,,,,8,0,8,0,,,,,,,,,,,,,,,,,,,,,,,,,,,,,,,,,,,,,,,,,,,,,,,,,,,,,,,,,,,,,,,,,,,,,,,,,,,,,,,,,,,,,,,870145,001,2024-03-21_18h53.55.186,Test1,2023.2.3,None,2024-03-21 18h54.02.735182 -0300,
0,0,0,0,,,,,,,,,,,,,,,,,9,0,9,0,0,0,0,0,,,,,,,,,26.074678586001028,,,,,,,,,,,,,,,,,,,,,,,,,,,,,,,,,,,,,,,,,,26.05605622800067,26.056100542000422,26.05610906000038,26.05612410899994,,,,,,,,,,,,,,,,,,,,,,,,,,,,,870145,001,2024-03-21_18h53.55.186,Test1,2023.2.3,None,2024-03-21 18h54.02.735182 -0300,
0,0,0,0,,,,,,,,,,,,,,,,,9,0,9,0,1,0,1,0,,,,,,,,,26.074678586001028,,,,,,,,,,,,,,,,,,,,,,,,,,,,,,,,,,,,,,,,,,26.05627622800057,26.05631430700123,26.056321374000618,26.056334914001127,,,,,,,,,,,,,,,,,,,,,,,,,,,,,870145,001,2024-03-21_18h53.55.186,Test1,2023.2.3,None,2024-03-21 18h54.02.735182 -0300,
0,0,0,0,,,,,,,,,,,,,,,,,9,0,9,0,2,0,2,0,,,,,,,,,26.074678586001028,,,,,,,,,,,,,,,,,,,,,,,,,,,,,,,,,,,,,,,,,,26.05648069700146,26.05652039600136,26.056527396000092,26.05654099000094,,,,,,,,,,,,,,,,,,,,,,,,,,,,,870145,001,2024-03-21_18h53.55.186,Test1,2023.2.3,None,2024-03-21 18h54.02.735182 -0300,
0,0,0,0,,,,,,,,,,,,,,,,,9,0,9,0,3,0,3,0,,,,,,,,,26.074678586001028,,,,,,,,,,,,,,,,,,,,,,,,,,,,,,,,,,,,,,,,,,26.056689099001233,26.056723127001533,26.056730026000878,26.056743310000456,,,,,,,,,,,,,,,,,,,,,,,,,,,,,870145,001,2024-03-21_18h53.55.186,Test1,2023.2.3,None,2024-03-21 18h54.02.735182 -0300,
0,0,0,0,,,,,,,,,,,,,,,,,9,0,9,0,4,0,4,0,,,,,,,,,26.074678586001028,,,,,,,,,,,,,,,,,,,,,,,,,,,,,,,,,,,,,,,,,,26.056892946000517,26.056926713001303,26.056933751000543,26.056984378999914,,,,,,,,,,,,,,,,,,,,,,,,,,,,,870145,001,2024-03-21_18h53.55.186,Test1,2023.2.3,None,2024-03-21 18h54.02.735182 -0300,
0,0,0,0,,,,,,,,,,,,,,,,,9,0,9,0,5,0,5,0,,,,,,,,,26.074678586001028,,,,,,,,,,,,,,,,,,,,,,,,,,,,,,,,,,,,,,,,,,26.05713180500061,26.05716875899998,26.057175706000635,26.057191939000404,,,,,,,,,,,,,,,,,,,,,,,,,,,,,870145,001,2024-03-21_18h53.55.186,Test1,2023.2.3,None,2024-03-21 18h54.02.735182 -0300,
0,0,0,0,,,,,,,,,,,,,,,,,9,0,9,0,6,0,6,0,,,,,,,,,26.074678586001028,,,,,,,,,,,,,,,,,,,,,,,,,,,,,,,,,,,,,,,,,,26.057340661000126,26.057374268000785,26.057381254000575,26.057394781000767,,,,,,,,,,,,,,,,,,,,,,,,,,,,,870145,001,2024-03-21_18h53.55.186,Test1,2023.2.3,None,2024-03-21 18h54.02.735182 -0300,
0,0,0,0,,,,,,,,,,,,,,,,,9,0,9,0,7,0,7,0,,,,,,,,,26.074678586001028,,,,,,,,,,,,,,,,,,,,,,,,,,,,,,,,,,,,,,,,,,26.057538347000445,26.057574792001105,26.057581835000747,26.057595180000135,,,,,,,,,,,,,,,,,,,,,,,,,,,,,870145,001,2024-03-21_18h53.55.186,Test1,2023.2.3,None,2024-03-21 18h54.02.735182 -0300,
0,0,0,0,,,,,,,,,,,,,,,,,9,0,9,0,8,0,8,0,,,,,,,,,26.074678586001028,,,,,,,,,,,,,,,,,,,,,,,,,,,,,,,,,,,,,,,,,,26.057738669000173,26.057776929999818,26.057784176000496,26.057799829000942,,,,,,,,,,,,,,,,,,,,,,,,,,,,,870145,001,2024-03-21_18h53.55.186,Test1,2023.2.3,None,2024-03-21 18h54.02.735182 -0300,
0,0,0,0,,,,,,,,,,,,,,,,,9,0,9,0,9,0,9,0,,,,,,,,,26.074678586001028,,,,,,,,,,,,,,,,,,,,,,,,,,,,,,,,,,,,,,,,,,26.057946255999923,26.057980210000096,26.057986981000795,26.05800036600158,,,,,,,,,,,,,,,,,,,,,,,,,,,,,870145,001,2024-03-21_18h53.55.186,Test1,2023.2.3,None,2024-03-21 18h54.02.735182 -0300,
0,0,0,0,,,,,,,,,,,,,,,,,9,0,9,0,,,,,,,,,,,,,,,,,,,,,,,,,,,,,,,,,,,,,,,,,,,,,,,,,,,,,,,,,,,,,,,,,,,,,,,,,,,,,,,,,,,,,,,870145,001,2024-03-21_18h53.55.186,Test1,2023.2.3,None,2024-03-21 18h54.02.735182 -0300,
0,0,0,0,,,,,,,,,,,,,,,,,,,,,,,,,0,0,0,0,0,0,0,0,26.074678586001028,,,,,,,,,,,,,,,,,,,,,,,,,,,,,,,,,,,,,,,,,,,,,,26.058697338001366,26.058769101000507,26.05877744300051,26.060755287000575,,,,,,,,,,,,,,,,,,,,,,,,,870145,001,2024-03-21_18h53.55.186,Test1,2023.2.3,None,2024-03-21 18h54.02.735182 -0300,
0,0,0,0,,,,,,,,,,,,,,,,,,,,,,,,,0,0,0,0,,,,,,,,,,,,,,,,,,,,,,,,,,,,,,,,,,,,,,,,,,,,,,,,,,,,,,,,,,,,,,,,,,,,,,,,,,,,,,,870145,001,2024-03-21_18h53.55.186,Test1,2023.2.3,None,2024-03-21 18h54.02.735182 -0300,
0,0,0,0,,,,,,,,,,,,,,,,,,,,,,,,,,,,,,,,,,,,,,,,,,,,,,,,,,,,,,,,,,,,,,,,,,,,,,,,,,,,,,,,,,,26.06084147399997,26.061258647001523,,,,,,,,,,,,,,,,,,,,,,,870145,001,2024-03-21_18h53.55.186,Test1,2023.2.3,None,2024-03-21 18h54.02.735182 -0300,
1,0,1,0,0,0,0,0,0,0,0,0,,,,,,,,,,,,,,,,,,,,,,,,,36.13164725000024,,,,,,26.061629277000975,26.074678586001028,26.074678586001028,26.074678586001028,26.074678586001028,26.074678586001028,36.06448396700034,0,,,0,,,0,,,1,[5.2880989459990815],[5.483855730999494],36.066581388000486,36.06662851400142,36.0666407610006,36.066659557000094,,,,,,,,,,,,,,,,,,,,,,,,,,,,,,,,,,,,,,,,,,,,,,870145,001,2024-03-21_18h53.55.186,Test1,2023.2.3,None,2024-03-21 18h54.02.735182 -0300,
1,0,1,0,0,0,0,0,1,0,1,0,,,,,,,,,,,,,,,,,,,,,,,,,36.13164725000024,,,,,,,,,,,,,,,,,,,,,,,,,36.06686746500054,36.06689435299995,36.06690201400124,36.06691638900156,,,,,,,,,,,,,,,,,,,,,,,,,,,,,,,,,,,,,,,,,,,,,,870145,001,2024-03-21_18h53.55.186,Test1,2023.2.3,None,2024-03-21 18h54.02.735182 -0300,
1,0,1,0,0,0,0,0,2,0,2,0,,,,,,,,,,,,,,,,,,,,,,,,,36.13164725000024,,,,,,,,,,,,,,,,,,,,,,,,,36.067088507001245,36.06711379100125,36.06712124600017,36.067135944000256,,,,,,,,,,,,,,,,,,,,,,,,,,,,,,,,,,,,,,,,,,,,,,870145,001,2024-03-21_18h53.55.186,Test1,2023.2.3,None,2024-03-21 18h54.02.735182 -0300,
1,0,1,0,0,0,0,0,3,0,3,0,,,,,,,,,,,,,,,,,,,,,,,,,36.13164725000024,,,,,,,,,,,,,,,,,,,,,,,,,36.06730331400104,36.06732822900085,36.067335558000195,36.06734991400117,,,,,,,,,,,,,,,,,,,,,,,,,,,,,,,,,,,,,,,,,,,,,,870145,001,2024-03-21_18h53.55.186,Test1,2023.2.3,None,2024-03-21 18h54.02.735182 -0300,
1,0,1,0,0,0,0,0,4,0,4,0,,,,,,,,,,,,,,,,,,,,,,,,,36.13164725000024,,,,,,,,,,,,,,,,,,,,,,,,,36.067537286000515,36.0675620230013,36.06756954699995,36.06758454300143,,,,,,,,,,,,,,,,,,,,,,,,,,,,,,,,,,,,,,,,,,,,,,870145,001,2024-03-21_18h53.55.186,Test1,2023.2.3,None,2024-03-21 18h54.02.735182 -0300,
1,0,1,0,0,0,0,0,5,0,5,0,,,,,,,,,,,,,,,,,,,,,,,,,36.13164725000024,,,,,,,,,,,,,,,,,,,,,,,,,36.06774987800054,36.06777419900027,36.06778159900023,36.06779621900023,,,,,,,,,,,,,,,,,,,,,,,,,,,,,,,,,,,,,,,,,,,,,,870145,001,2024-03-21_18h53.55.186,Test1,2023.2.3,None,2024-03-21 18h54.02.735182 -0300,
1,0,1,0,0,0,0,0,6,0,6,0,,,,,,,,,,,,,,,,,,,,,,,,,36.13164725000024,,,,,,,,,,,,,,,,,,,,,,,,,36.06796024400137,36.06798463599989,36.06799193600091,36.06800619900059,,,,,,,,,,,,,,,,,,,,,,,,,,,,,,,,,,,,,,,,,,,,,,870145,001,2024-03-21_18h53.55.186,Test1,2023.2.3,None,2024-03-21 18h54.02.735182 -0300,
1,0,1,0,0,0,0,0,7,0,7,0,,,,,,,,,,,,,,,,,,,,,,,,,36.13164725000024,,,,,,,,,,,,,,,,,,,,,,,,,36.06818998000017,36.068215957000575,36.068223554000724,36.06823799900121,,,,,,,,,,,,,,,,,,,,,,,,,,,,,,,,,,,,,,,,,,,,,,870145,001,2024-03-21_18h53.55.186,Test1,2023.2.3,None,2024-03-21 18h54.02.735182 -0300,
1,0,1,0,0,0,0,0,8,0,8,0,,,,,,,,,,,,,,,,,,,,,,,,,36.13164725000024,,,,,,,,,,,,,,,,,,,,,,,,,36.06840181500047,36.06842660000075,36.06843404900064,36.06844860000092,,,,,,,,,,,,,,,,,,,,,,,,,,,,,,,,,,,,,,,,,,,,,,870145,001,2024-03-21_18h53.55.186,Test1,2023.2.3,None,2024-03-21 18h54.02.735182 -0300,
1,0,1,0,0,0,0,0,9,0,9,0,,,,,,,,,,,,,,,,,,,,,,,,,36.13164725000024,,,,,,,,,,,,,,,,,,,,,,,,,36.06861481099986,36.06864067200149,36.06865142500101,36.06867510400116,,,,,,,,,,,,,,,,,,,,,,,,,,,,,,,,,,,,,,,,,,,,,,870145,001,2024-03-21_18h53.55.186,Test1,2023.2.3,None,2024-03-21 18h54.02.735182 -0300,
1,0,1,0,0,0,0,0,,,,,,,,,,,,,,,,,,,,,,,,,,,,,,,,,,,,,,,,,,,,,,,,,,,,,,,,,,,,,,,,,,,,,,,,,,,,,,,,,,,,,,,,,,,,,,,,,,,,,,,870145,001,2024-03-21_18h53.55.186,Test1,2023.2.3,None,2024-03-21 18h54.02.735182 -0300,
1,0,1,0,1,0,1,0,0,0,0,0,,,,,,,,,,,,,,,,,,,,,,,,,36.13164725000024,,,,,,,,,,,,,,,,,,,,,,,,,36.0693114149999,36.06934459700096,36.06935298700046,36.06936899500033,,,,,,,,,,,,,,,,,,,,,,,,,,,,,,,,,,,,,,,,,,,,,,870145,001,2024-03-21_18h53.55.186,Test1,2023.2.3,None,2024-03-21 18h54.02.735182 -0300,
1,0,1,0,1,0,1,0,1,0,1,0,,,,,,,,,,,,,,,,,,,,,,,,,36.13164725000024,,,,,,,,,,,,,,,,,,,,,,,,,36.069540794000204,36.06956725300006,36.06957500400131,36.069589834,,,,,,,,,,,,,,,,,,,,,,,,,,,,,,,,,,,,,,,,,,,,,,870145,001,2024-03-21_18h53.55.186,Test1,2023.2.3,None,2024-03-21 18h54.02.735182 -0300,
1,0,1,0,1,0,1,0,2,0,2,0,,,,,,,,,,,,,,,,,,,,,,,,,36.13164725000024,,,,,,,,,,,,,,,,,,,,,,,,,36.069756368000526,36.069782717000635,36.06979238400163,36.06984347400066,,,,,,,,,,,,,,,,,,,,,,,,,,,,,,,,,,,,,,,,,,,,,,870145,001,2024-03-21_18h53.55.186,Test1,2023.2.3,None,2024-03-21 18h54.02.735182 -0300,
1,0,1,0,1,0,1,0,3,0,3,0,,,,,,,,,,,,,,,,,,,,,,,,,36.13164725000024,,,,,,,,,,,,,,,,,,,,,,,,,36.07005773400124,36.070086997000544,36.070095022001624,36.07011029900059,,,,,,,,,,,,,,,,,,,,,,,,,,,,,,,,,,,,,,,,,,,,,,870145,001,2024-03-21_18h53.55.186,Test1,2023.2.3,None,2024-03-21 18h54.02.735182 -0300,
1,0,1,0,1,0,1,0,4,0,4,0,,,,,,,,,,,,,,,,,,,,,,,,,36.13164725000024,,,,,,,,,,,,,,,,,,,,,,,,,36.070287795000695,36.07031371800076,36.07032138000068,36.07033591200161,,,,,,,,,,,,,,,,,,,,,,,,,,,,,,,,,,,,,,,,,,,,,,870145,001,2024-03-21_18h53.55.186,Test1,2023.2.3,None,2024-03-21 18h54.02.735182 -0300,
1,0,1,0,1,0,1,0,5,0,5,0,,,,,,,,,,,,,,,,,,,,,,,,,36.13164725000024,,,,,,,,,,,,,,,,,,,,,,,,,36.07050648100085,36.070532065001316,36.07053938300123,36.07055388000117,,,,,,,,,,,,,,,,,,,,,,,,,,,,,,,,,,,,,,,,,,,,,,870145,001,2024-03-21_18h53.55.186,Test1,2023.2.3,None,2024-03-21 18h54.02.735182 -0300,
1,0,1,0,1,0,1,0,6,0,6,0,,,,,,,,,,,,,,,,,,,,,,,,,36.13164725000024,,,,,,,,,,,,,,,,,,,,,,,,,36.07072062299994,36.07074568700045,36.07075313000132,36.07076745900122,,,,,,,,,,,,,,,,,,,,,,,,,,,,,,,,,,,,,,,,,,,,,,870145,001,2024-03-21_18h53.55.186,Test1,2023.2.3,None,2024-03-21 18h54.02.735182 -0300,
1,0,1,0,1,0,1,0,7,0,7,0,,,,,,,,,,,,,,,,,,,,,,,,,36.13164725000024,,,,,,,,,,,,,,,,,,,,,,,,,36.07094538199999,36.07097005200012,36.07097742900078,36.070991539001625,,,,,,,,,,,,,,,,,,,,,,,,,,,,,,,,,,,,,,,,,,,,,,870145,001,2024-03-21_18h53.55.186,Test1,2023.2.3,None,2024-03-21 18h54.02.735182 -0300,
1,0,1,0,1,0,1,0,8,0,8,0,,,,,,,,,,,,,,,,,,,,,,,,,36.13164725000024,,,,,,,,,,,,,,,,,,,,,,,,,36.07115353700101,36.07117813900004,36.07118550400082,36.071200031001354,,,,,,,,,,,,,,,,,,,,,,,,,,,,,,,,,,,,,,,,,,,,,,870145,001,2024-03-21_18h53.55.186,Test1,2023.2.3,None,2024-03-21 18h54.02.735182 -0300,
1,0,1,0,1,0,1,0,9,0,9,0,,,,,,,,,,,,,,,,,,,,,,,,,36.13164725000024,,,,,,,,,,,,,,,,,,,,,,,,,36.07136908400025,36.071393967000404,36.0714012440003,36.07141492200026,,,,,,,,,,,,,,,,,,,,,,,,,,,,,,,,,,,,,,,,,,,,,,870145,001,2024-03-21_18h53.55.186,Test1,2023.2.3,None,2024-03-21 18h54.02.735182 -0300,
1,0,1,0,1,0,1,0,,,,,,,,,,,,,,,,,,,,,,,,,,,,,,,,,,,,,,,,,,,,,,,,,,,,,,,,,,,,,,,,,,,,,,,,,,,,,,,,,,,,,,,,,,,,,,,,,,,,,,,870145,001,2024-03-21_18h53.55.186,Test1,2023.2.3,None,2024-03-21 18h54.02.735182 -0300,
1,0,1,0,2,0,2,0,0,0,0,0,,,,,,,,,,,,,,,,,,,,,,,,,36.13164725000024,,,,,,,,,,,,,,,,,,,,,,,,,36.072045409000566,36.072077329999956,36.07208532600089,36.07210067400047,,,,,,,,,,,,,,,,,,,,,,,,,,,,,,,,,,,,,,,,,,,,,,870145,001,2024-03-21_18h53.55.186,Test1,2023.2.3,None,2024-03-21 18h54.02.735182 -0300,
1,0,1,0,2,0,2,0,1,0,1,0,,,,,,,,,,,,,,,,,,,,,,,,,36.13164725000024,,,,,,,,,,,,,,,,,,,,,,,,,36.07227107200015,36.072296936001294,36.07230443000117,36.07231877600134,,,,,,,,,,,,,,,,,,,,,,,,,,,,,,,,,,,,,,,,,,,,,,870145,001,2024-03-21_18h53.55.186,Test1,2023.2.3,None,2024-03-21 18h54.02.735182 -0300,
1,0,1,0,2,0,2,0,2,0,2,0,,,,,,,,,,,,,,,,,,,,,,,,,36.13164725000024,,,,,,,,,,,,,,,,,,,,,,,,,36.07249093700011,36.07251943400115,36.07252685599997,36.07254164200094,,,,,,,,,,,,,,,,,,,,,,,,,,,,,,,,,,,,,,,,,,,,,,870145,001,2024-03-21_18h53.55.186,Test1,2023.2.3,None,2024-03-21 18h54.02.735182 -0300,
1,0,1,0,2,0,2,0,3,0,3,0,,,,,,,,,,,,,,,,,,,,,,,,,36.13164725000024,,,,,,,,,,,,,,,,,,,,,,,,,36.07270897900162,36.07273358400016,36.07274091399995,36.07275693000156,,,,,,,,,,,,,,,,,,,,,,,,,,,,,,,,,,,,,,,,,,,,,,870145,001,2024-03-21_18h53.55.186,Test1,2023.2.3,None,2024-03-21 18h54.02.735182 -0300,
1,0,1,0,2,0,2,0,4,0,4,0,,,,,,,,,,,,,,,,,,,,,,,,,36.13164725000024,,,,,,,,,,,,,,,,,,,,,,,,,36.07292434700139,36.072948830000314,36.072956213,36.07297112000015,,,,,,,,,,,,,,,,,,,,,,,,,,,,,,,,,,,,,,,,,,,,,,870145,001,2024-03-21_18h53.55.186,Test1,2023.2.3,None,2024-03-21 18h54.02.735182 -0300,
1,0,1,0,2,0,2,0,5,0,5,0,,,,,,,,,,,,,,,,,,,,,,,,,36.13164725000024,,,,,,,,,,,,,,,,,,,,,,,,,36.07313818000148,36.073162944001524,36.073170306000975,36.073184319000575,,,,,,,,,,,,,,,,,,,,,,,,,,,,,,,,,,,,,,,,,,,,,,870145,001,2024-03-21_18h53.55.186,Test1,2023.2.3,None,2024-03-21 18h54.02.735182 -0300,
1,0,1,0,2,0,2,0,6,0,6,0,,,,,,,,,,,,,,,,,,,,,,,,,36.13164725000024,,,,,,,,,,,,,,,,,,,,,,,,,36.07335101300123,36.07337557400024,36.073382956001296,36.07339720500022,,,,,,,,,,,,,,,,,,,,,,,,,,,,,,,,,,,,,,,,,,,,,,870145,001,2024-03-21_18h53.55.186,Test1,2023.2.3,None,2024-03-21 18h54.02.735182 -0300,
1,0,1,0,2,0,2,0,7,0,7,0,,,,,,,,,,,,,,,,,,,,,,,,,36.13164725000024,,,,,,,,,,,,,,,,,,,,,,,,,36.07366081300097,36.07368638200023,36.073693809999895,36.07370795800125,,,,,,,,,,,,,,,,,,,,,,,,,,,,,,,,,,,,,,,,,,,,,,870145,001,2024-03-21_18h53.55.186,Test1,2023.2.3,None,2024-03-21 18h54.02.735182 -0300,
1,0,1,0,2,0,2,0,8,0,8,0,,,,,,,,,,,,,,,,,,,,,,,,,36.13164725000024,,,,,,,,,,,,,,,,,,,,,,,,,36.07387236000068,36.07389730200157,36.073904830000174,36.073919002001276,,,,,,,,,,,,,,,,,,,,,,,,,,,,,,,,,,,,,,,,,,,,,,870145,001,2024-03-21_18h53.55.186,Test1,2023.2.3,None,2024-03-21 18h54.02.735182 -0300,
1,0,1,0,2,0,2,0,9,0,9,0,,,,,,,,,,,,,,,,,,,,,,,,,36.13164725000024,,,,,,,,,,,,,,,,,,,,,,,,,36.07408799299992,36.0741131850009,36.07412050899984,36.07413472400003,,,,,,,,,,,,,,,,,,,,,,,,,,,,,,,,,,,,,,,,,,,,,,870145,001,2024-03-21_18h53.55.186,Test1,2023.2.3,None,2024-03-21 18h54.02.735182 -0300,
1,0,1,0,2,0,2,0,,,,,,,,,,,,,,,,,,,,,,,,,,,,,,,,,,,,,,,,,,,,,,,,,,,,,,,,,,,,,,,,,,,,,,,,,,,,,,,,,,,,,,,,,,,,,,,,,,,,,,,870145,001,2024-03-21_18h53.55.186,Test1,2023.2.3,None,2024-03-21 18h54.02.735182 -0300,
1,0,1,0,3,0,3,0,0,0,0,0,,,,,,,,,,,,,,,,,,,,,,,,,36.13164725000024,,,,,,,,,,,,,,,,,,,,,,,,,36.07473161600137,36.074761974001376,36.07477005400142,36.0747849140007,,,,,,,,,,,,,,,,,,,,,,,,,,,,,,,,,,,,,,,,,,,,,,870145,001,2024-03-21_18h53.55.186,Test1,2023.2.3,None,2024-03-21 18h54.02.735182 -0300,
1,0,1,0,3,0,3,0,1,0,1,0,,,,,,,,,,,,,,,,,,,,,,,,,36.13164725000024,,,,,,,,,,,,,,,,,,,,,,,,,36.07495418100007,36.07497989000149,36.07498728700011,36.075001570001405,,,,,,,,,,,,,,,,,,,,,,,,,,,,,,,,,,,,,,,,,,,,,,870145,001,2024-03-21_18h53.55.186,Test1,2023.2.3,None,2024-03-21 18h54.02.735182 -0300,
1,0,1,0,3,0,3,0,2,0,2,0,,,,,,,,,,,,,,,,,,,,,,,,,36.13164725000024,,,,,,,,,,,,,,,,,,,,,,,,,36.07517311900119,36.075198068001555,36.07520555700103,36.075219985999865,,,,,,,,,,,,,,,,,,,,,,,,,,,,,,,,,,,,,,,,,,,,,,870145,001,2024-03-21_18h53.55.186,Test1,2023.2.3,None,2024-03-21 18h54.02.735182 -0300,
1,0,1,0,3,0,3,0,3,0,3,0,,,,,,,,,,,,,,,,,,,,,,,,,36.13164725000024,,,,,,,,,,,,,,,,,,,,,,,,,36.07538761500109,36.07541234600103,36.07541974000014,36.0754378390011,,,,,,,,,,,,,,,,,,,,,,,,,,,,,,,,,,,,,,,,,,,,,,870145,001,2024-03-21_18h53.55.186,Test1,2023.2.3,None,2024-03-21 18h54.02.735182 -0300,
1,0,1,0,3,0,3,0,4,0,4,0,,,,,,,,,,,,,,,,,,,,,,,,,36.13164725000024,,,,,,,,,,,,,,,,,,,,,,,,,36.07560590200046,36.0756307010015,36.07563790899985,36.07565194900053,,,,,,,,,,,,,,,,,,,,,,,,,,,,,,,,,,,,,,,,,,,,,,870145,001,2024-03-21_18h53.55.186,Test1,2023.2.3,None,2024-03-21 18h54.02.735182 -0300,
1,0,1,0,3,0,3,0,5,0,5,0,,,,,,,,,,,,,,,,,,,,,,,,,36.13164725000024,,,,,,,,,,,,,,,,,,,,,,,,,36.075817878001544,36.075843089000045,36.07585049299996,36.07586500200159,,,,,,,,,,,,,,,,,,,,,,,,,,,,,,,,,,,,,,,,,,,,,,870145,001,2024-03-21_18h53.55.186,Test1,2023.2.3,None,2024-03-21 18h54.02.735182 -0300,
1,0,1,0,3,0,3,0,6,0,6,0,,,,,,,,,,,,,,,,,,,,,,,,,36.13164725000024,,,,,,,,,,,,,,,,,,,,,,,,,36.07602619300087,36.07605052300096,36.076058045000536,36.07607254700088,,,,,,,,,,,,,,,,,,,,,,,,,,,,,,,,,,,,,,,,,,,,,,870145,001,2024-03-21_18h53.55.186,Test1,2023.2.3,None,2024-03-21 18h54.02.735182 -0300,
1,0,1,0,3,0,3,0,7,0,7,0,,,,,,,,,,,,,,,,,,,,,,,,,36.13164725000024,,,,,,,,,,,,,,,,,,,,,,,,,36.07623268700081,36.07625666900094,36.07626393600003,36.07628229400143,,,,,,,,,,,,,,,,,,,,,,,,,,,,,,,,,,,,,,,,,,,,,,870145,001,2024-03-21_18h53.55.186,Test1,2023.2.3,None,2024-03-21 18h54.02.735182 -0300,
1,0,1,0,3,0,3,0,8,0,8,0,,,,,,,,,,,,,,,,,,,,,,,,,36.13164725000024,,,,,,,,,,,,,,,,,,,,,,,,,36.07644741700096,36.07647180300046,36.076479191000544,36.076493297001434,,,,,,,,,,,,,,,,,,,,,,,,,,,,,,,,,,,,,,,,,,,,,,870145,001,2024-03-21_18h53.55.186,Test1,2023.2.3,None,2024-03-21 18h54.02.735182 -0300,
1,0,1,0,3,0,3,0,9,0,9,0,,,,,,,,,,,,,,,,,,,,,,,,,36.13164725000024,,,,,,,,,,,,,,,,,,,,,,,,,36.07665706100124,36.07668139100133,36.076688684001056,36.07670294400123,,,,,,,,,,,,,,,,,,,,,,,,,,,,,,,,,,,,,,,,,,,,,,870145,001,2024-03-21_18h53.55.186,Test1,2023.2.3,None,2024-03-21 18h54.02.735182 -0300,
1,0,1,0,3,0,3,0,,,,,,,,,,,,,,,,,,,,,,,,,,,,,,,,,,,,,,,,,,,,,,,,,,,,,,,,,,,,,,,,,,,,,,,,,,,,,,,,,,,,,,,,,,,,,,,,,,,,,,,870145,001,2024-03-21_18h53.55.186,Test1,2023.2.3,None,2024-03-21 18h54.02.735182 -0300,
1,0,1,0,4,0,4,0,0,0,0,0,,,,,,,,,,,,,,,,,,,,,,,,,36.13164725000024,,,,,,,,,,,,,,,,,,,,,,,,,36.07728649400087,36.07731691900153,36.07732466700145,36.07733978299984,,,,,,,,,,,,,,,,,,,,,,,,,,,,,,,,,,,,,,,,,,,,,,870145,001,2024-03-21_18h53.55.186,Test1,2023.2.3,None,2024-03-21 18h54.02.735182 -0300,
1,0,1,0,4,0,4,0,1,0,1,0,,,,,,,,,,,,,,,,,,,,,,,,,36.13164725000024,,,,,,,,,,,,,,,,,,,,,,,,,36.07750863500041,36.0775344090016,36.07754206900063,36.07755745900067,,,,,,,,,,,,,,,,,,,,,,,,,,,,,,,,,,,,,,,,,,,,,,870145,001,2024-03-21_18h53.55.186,Test1,2023.2.3,None,2024-03-21 18h54.02.735182 -0300,
1,0,1,0,4,0,4,0,2,0,2,0,,,,,,,,,,,,,,,,,,,,,,,,,36.13164725000024,,,,,,,,,,,,,,,,,,,,,,,,,36.07772734399987,36.0777520820011,36.07775938600025,36.07777368900133,,,,,,,,,,,,,,,,,,,,,,,,,,,,,,,,,,,,,,,,,,,,,,870145,001,2024-03-21_18h53.55.186,Test1,2023.2.3,None,2024-03-21 18h54.02.735182 -0300,
1,0,1,0,4,0,4,0,3,0,3,0,,,,,,,,,,,,,,,,,,,,,,,,,36.13164725000024,,,,,,,,,,,,,,,,,,,,,,,,,36.07793492300152,36.077958736001165,36.07796610600053,36.07798483500119,,,,,,,,,,,,,,,,,,,,,,,,,,,,,,,,,,,,,,,,,,,,,,870145,001,2024-03-21_18h53.55.186,Test1,2023.2.3,None,2024-03-21 18h54.02.735182 -0300,
1,0,1,0,4,0,4,0,4,0,4,0,,,,,,,,,,,,,,,,,,,,,,,,,36.13164725000024,,,,,,,,,,,,,,,,,,,,,,,,,36.07814786900053,36.078171906001444,36.078179429001466,36.07819337000001,,,,,,,,,,,,,,,,,,,,,,,,,,,,,,,,,,,,,,,,,,,,,,870145,001,2024-03-21_18h53.55.186,Test1,2023.2.3,None,2024-03-21 18h54.02.735182 -0300,
1,0,1,0,4,0,4,0,5,0,5,0,,,,,,,,,,,,,,,,,,,,,,,,,36.13164725000024,,,,,,,,,,,,,,,,,,,,,,,,,36.078358922000916,36.07838339900081,36.078390700000455,36.078408565001155,,,,,,,,,,,,,,,,,,,,,,,,,,,,,,,,,,,,,,,,,,,,,,870145,001,2024-03-21_18h53.55.186,Test1,2023.2.3,None,2024-03-21 18h54.02.735182 -0300,
1,0,1,0,4,0,4,0,6,0,6,0,,,,,,,,,,,,,,,,,,,,,,,,,36.13164725000024,,,,,,,,,,,,,,,,,,,,,,,,,36.07857440299995,36.07859963100054,36.07860709800116,36.078621260001455,,,,,,,,,,,,,,,,,,,,,,,,,,,,,,,,,,,,,,,,,,,,,,870145,001,2024-03-21_18h53.55.186,Test1,2023.2.3,None,2024-03-21 18h54.02.735182 -0300,
1,0,1,0,4,0,4,0,7,0,7,0,,,,,,,,,,,,,,,,,,,,,,,,,36.13164725000024,,,,,,,,,,,,,,,,,,,,,,,,,36.078790404000756,36.078814528000294,36.07882172300015,36.078835722000804,,,,,,,,,,,,,,,,,,,,,,,,,,,,,,,,,,,,,,,,,,,,,,870145,001,2024-03-21_18h53.55.186,Test1,2023.2.3,None,2024-03-21 18h54.02.735182 -0300,
1,0,1,0,4,0,4,0,8,0,8,0,,,,,,,,,,,,,,,,,,,,,,,,,36.13164725000024,,,,,,,,,,,,,,,,,,,,,,,,,36.0790044080004,36.07902831800129,36.079035486000066,36.07904946900089,,,,,,,,,,,,,,,,,,,,,,,,,,,,,,,,,,,,,,,,,,,,,,870145,001,2024-03-21_18h53.55.186,Test1,2023.2.3,None,2024-03-21 18h54.02.735182 -0300,
1,0,1,0,4,0,4,0,9,0,9,0,,,,,,,,,,,,,,,,,,,,,,,,,36.13164725000024,,,,,,,,,,,,,,,,,,,,,,,,,36.07923842400123,36.07926340999984,36.079270832000475,36.07928484100012,,,,,,,,,,,,,,,,,,,,,,,,,,,,,,,,,,,,,,,,,,,,,,870145,001,2024-03-21_18h53.55.186,Test1,2023.2.3,None,2024-03-21 18h54.02.735182 -0300,
1,0,1,0,4,0,4,0,,,,,,,,,,,,,,,,,,,,,,,,,,,,,,,,,,,,,,,,,,,,,,,,,,,,,,,,,,,,,,,,,,,,,,,,,,,,,,,,,,,,,,,,,,,,,,,,,,,,,,,870145,001,2024-03-21_18h53.55.186,Test1,2023.2.3,None,2024-03-21 18h54.02.735182 -0300,
1,0,1,0,5,0,5,0,0,0,0,0,,,,,,,,,,,,,,,,,,,,,,,,,36.13164725000024,,,,,,,,,,,,,,,,,,,,,,,,,36.079875579000145,36.07990614100163,36.07991394500095,36.07992893500159,,,,,,,,,,,,,,,,,,,,,,,,,,,,,,,,,,,,,,,,,,,,,,870145,001,2024-03-21_18h53.55.186,Test1,2023.2.3,None,2024-03-21 18h54.02.735182 -0300,
1,0,1,0,5,0,5,0,1,0,1,0,,,,,,,,,,,,,,,,,,,,,,,,,36.13164725000024,,,,,,,,,,,,,,,,,,,,,,,,,36.08009470400066,36.08012015900022,36.08012762399994,36.080141880000156,,,,,,,,,,,,,,,,,,,,,,,,,,,,,,,,,,,,,,,,,,,,,,870145,001,2024-03-21_18h53.55.186,Test1,2023.2.3,None,2024-03-21 18h54.02.735182 -0300,
1,0,1,0,5,0,5,0,2,0,2,0,,,,,,,,,,,,,,,,,,,,,,,,,36.13164725000024,,,,,,,,,,,,,,,,,,,,,,,,,36.080304970000725,36.080329518001236,36.080336814000475,36.08035105199997,,,,,,,,,,,,,,,,,,,,,,,,,,,,,,,,,,,,,,,,,,,,,,870145,001,2024-03-21_18h53.55.186,Test1,2023.2.3,None,2024-03-21 18h54.02.735182 -0300,
1,0,1,0,5,0,5,0,3,0,3,0,,,,,,,,,,,,,,,,,,,,,,,,,36.13164725000024,,,,,,,,,,,,,,,,,,,,,,,,,36.080529112001386,36.08055250899997,36.080559625001115,36.08057383300002,,,,,,,,,,,,,,,,,,,,,,,,,,,,,,,,,,,,,,,,,,,,,,870145,001,2024-03-21_18h53.55.186,Test1,2023.2.3,None,2024-03-21 18h54.02.735182 -0300,
1,0,1,0,5,0,5,0,4,0,4,0,,,,,,,,,,,,,,,,,,,,,,,,,36.13164725000024,,,,,,,,,,,,,,,,,,,,,,,,,36.08072955500029,36.08075293700131,36.080759943000885,36.08077326000057,,,,,,,,,,,,,,,,,,,,,,,,,,,,,,,,,,,,,,,,,,,,,,870145,001,2024-03-21_18h53.55.186,Test1,2023.2.3,None,2024-03-21 18h54.02.735182 -0300,
1,0,1,0,5,0,5,0,5,0,5,0,,,,,,,,,,,,,,,,,,,,,,,,,36.13164725000024,,,,,,,,,,,,,,,,,,,,,,,,,36.08093652400021,36.080960242999936,36.08096718900015,36.08098065900049,,,,,,,,,,,,,,,,,,,,,,,,,,,,,,,,,,,,,,,,,,,,,,870145,001,2024-03-21_18h53.55.186,Test1,2023.2.3,None,2024-03-21 18h54.02.735182 -0300,
1,0,1,0,5,0,5,0,6,0,6,0,,,,,,,,,,,,,,,,,,,,,,,,,36.13164725000024,,,,,,,,,,,,,,,,,,,,,,,,,36.08113524200053,36.08116589100064,36.08117330999994,36.08118805900085,,,,,,,,,,,,,,,,,,,,,,,,,,,,,,,,,,,,,,,,,,,,,,870145,001,2024-03-21_18h53.55.186,Test1,2023.2.3,None,2024-03-21 18h54.02.735182 -0300,
1,0,1,0,5,0,5,0,7,0,7,0,,,,,,,,,,,,,,,,,,,,,,,,,36.13164725000024,,,,,,,,,,,,,,,,,,,,,,,,,36.081343994001145,36.08137284800068,36.08138008900096,36.0813948670002,,,,,,,,,,,,,,,,,,,,,,,,,,,,,,,,,,,,,,,,,,,,,,870145,001,2024-03-21_18h53.55.186,Test1,2023.2.3,None,2024-03-21 18h54.02.735182 -0300,
1,0,1,0,5,0,5,0,8,0,8,0,,,,,,,,,,,,,,,,,,,,,,,,,36.13164725000024,,,,,,,,,,,,,,,,,,,,,,,,,36.08155134200024,36.081576167000094,36.08158335900043,36.08159765700111,,,,,,,,,,,,,,,,,,,,,,,,,,,,,,,,,,,,,,,,,,,,,,870145,001,2024-03-21_18h53.55.186,Test1,2023.2.3,None,2024-03-21 18h54.02.735182 -0300,
1,0,1,0,5,0,5,0,9,0,9,0,,,,,,,,,,,,,,,,,,,,,,,,,36.13164725000024,,,,,,,,,,,,,,,,,,,,,,,,,36.081763466001576,36.08178833400052,36.081795416001114,36.08180983600141,,,,,,,,,,,,,,,,,,,,,,,,,,,,,,,,,,,,,,,,,,,,,,870145,001,2024-03-21_18h53.55.186,Test1,2023.2.3,None,2024-03-21 18h54.02.735182 -0300,
1,0,1,0,5,0,5,0,,,,,,,,,,,,,,,,,,,,,,,,,,,,,,,,,,,,,,,,,,,,,,,,,,,,,,,,,,,,,,,,,,,,,,,,,,,,,,,,,,,,,,,,,,,,,,,,,,,,,,,870145,001,2024-03-21_18h53.55.186,Test1,2023.2.3,None,2024-03-21 18h54.02.735182 -0300,
1,0,1,0,6,0,6,0,0,0,0,0,,,,,,,,,,,,,,,,,,,,,,,,,36.13164725000024,,,,,,,,,,,,,,,,,,,,,,,,,36.08253311699991,36.08256983700085,36.08257827400121,36.082594579000215,,,,,,,,,,,,,,,,,,,,,,,,,,,,,,,,,,,,,,,,,,,,,,870145,001,2024-03-21_18h53.55.186,Test1,2023.2.3,None,2024-03-21 18h54.02.735182 -0300,
1,0,1,0,6,0,6,0,1,0,1,0,,,,,,,,,,,,,,,,,,,,,,,,,36.13164725000024,,,,,,,,,,,,,,,,,,,,,,,,,36.08278343600068,36.08281070200064,36.08281800400073,36.082833458000096,,,,,,,,,,,,,,,,,,,,,,,,,,,,,,,,,,,,,,,,,,,,,,870145,001,2024-03-21_18h53.55.186,Test1,2023.2.3,None,2024-03-21 18h54.02.735182 -0300,
1,0,1,0,6,0,6,0,2,0,2,0,,,,,,,,,,,,,,,,,,,,,,,,,36.13164725000024,,,,,,,,,,,,,,,,,,,,,,,,,36.083010207999905,36.083036512000035,36.08304398400105,36.083058834999974,,,,,,,,,,,,,,,,,,,,,,,,,,,,,,,,,,,,,,,,,,,,,,870145,001,2024-03-21_18h53.55.186,Test1,2023.2.3,None,2024-03-21 18h54.02.735182 -0300,
1,0,1,0,6,0,6,0,3,0,3,0,,,,,,,,,,,,,,,,,,,,,,,,,36.13164725000024,,,,,,,,,,,,,,,,,,,,,,,,,36.08322966800006,36.083255514000484,36.083262695001395,36.08327771100085,,,,,,,,,,,,,,,,,,,,,,,,,,,,,,,,,,,,,,,,,,,,,,870145,001,2024-03-21_18h53.55.186,Test1,2023.2.3,None,2024-03-21 18h54.02.735182 -0300,
1,0,1,0,6,0,6,0,4,0,4,0,,,,,,,,,,,,,,,,,,,,,,,,,36.13164725000024,,,,,,,,,,,,,,,,,,,,,,,,,36.08344030199987,36.08346582900049,36.083473147000404,36.08348801600005,,,,,,,,,,,,,,,,,,,,,,,,,,,,,,,,,,,,,,,,,,,,,,870145,001,2024-03-21_18h53.55.186,Test1,2023.2.3,None,2024-03-21 18h54.02.735182 -0300,
1,0,1,0,6,0,6,0,5,0,5,0,,,,,,,,,,,,,,,,,,,,,,,,,36.13164725000024,,,,,,,,,,,,,,,,,,,,,,,,,36.08370278400071,36.0837288440016,36.08373620400016,36.08375118500044,,,,,,,,,,,,,,,,,,,,,,,,,,,,,,,,,,,,,,,,,,,,,,870145,001,2024-03-21_18h53.55.186,Test1,2023.2.3,None,2024-03-21 18h54.02.735182 -0300,
1,0,1,0,6,0,6,0,6,0,6,0,,,,,,,,,,,,,,,,,,,,,,,,,36.13164725000024,,,,,,,,,,,,,,,,,,,,,,,,,36.083916618999865,36.08394158400006,36.08394901500105,36.083964538000146,,,,,,,,,,,,,,,,,,,,,,,,,,,,,,,,,,,,,,,,,,,,,,870145,001,2024-03-21_18h53.55.186,Test1,2023.2.3,None,2024-03-21 18h54.02.735182 -0300,
1,0,1,0,6,0,6,0,7,0,7,0,,,,,,,,,,,,,,,,,,,,,,,,,36.13164725000024,,,,,,,,,,,,,,,,,,,,,,,,,36.08412244200008,36.08414669400008,36.08415394199983,36.08416831700015,,,,,,,,,,,,,,,,,,,,,,,,,,,,,,,,,,,,,,,,,,,,,,870145,001,2024-03-21_18h53.55.186,Test1,2023.2.3,None,2024-03-21 18h54.02.735182 -0300,
1,0,1,0,6,0,6,0,8,0,8,0,,,,,,,,,,,,,,,,,,,,,,,,,36.13164725000024,,,,,,,,,,,,,,,,,,,,,,,,,36.084332504000486,36.08435956300127,36.0843862290003,36.084402644000875,,,,,,,,,,,,,,,,,,,,,,,,,,,,,,,,,,,,,,,,,,,,,,870145,001,2024-03-21_18h53.55.186,Test1,2023.2.3,None,2024-03-21 18h54.02.735182 -0300,
1,0,1,0,6,0,6,0,9,0,9,0,,,,,,,,,,,,,,,,,,,,,,,,,36.13164725000024,,,,,,,,,,,,,,,,,,,,,,,,,36.0845791210013,36.08460775500134,36.084614815999885,36.084629352000775,,,,,,,,,,,,,,,,,,,,,,,,,,,,,,,,,,,,,,,,,,,,,,870145,001,2024-03-21_18h53.55.186,Test1,2023.2.3,None,2024-03-21 18h54.02.735182 -0300,
1,0,1,0,6,0,6,0,,,,,,,,,,,,,,,,,,,,,,,,,,,,,,,,,,,,,,,,,,,,,,,,,,,,,,,,,,,,,,,,,,,,,,,,,,,,,,,,,,,,,,,,,,,,,,,,,,,,,,,870145,001,2024-03-21_18h53.55.186,Test1,2023.2.3,None,2024-03-21 18h54.02.735182 -0300,
1,0,1,0,7,0,7,0,0,0,0,0,,,,,,,,,,,,,,,,,,,,,,,,,36.13164725000024,,,,,,,,,,,,,,,,,,,,,,,,,36.085232352001185,36.085264359000575,36.08527215400136,36.08528786200077,,,,,,,,,,,,,,,,,,,,,,,,,,,,,,,,,,,,,,,,,,,,,,870145,001,2024-03-21_18h53.55.186,Test1,2023.2.3,None,2024-03-21 18h54.02.735182 -0300,
1,0,1,0,7,0,7,0,1,0,1,0,,,,,,,,,,,,,,,,,,,,,,,,,36.13164725000024,,,,,,,,,,,,,,,,,,,,,,,,,36.08545258600134,36.08547839499988,36.08548530900043,36.08549967200088,,,,,,,,,,,,,,,,,,,,,,,,,,,,,,,,,,,,,,,,,,,,,,870145,001,2024-03-21_18h53.55.186,Test1,2023.2.3,None,2024-03-21 18h54.02.735182 -0300,
1,0,1,0,7,0,7,0,2,0,2,0,,,,,,,,,,,,,,,,,,,,,,,,,36.13164725000024,,,,,,,,,,,,,,,,,,,,,,,,,36.085667222001575,36.085691799000415,36.08569869600069,36.085712701000375,,,,,,,,,,,,,,,,,,,,,,,,,,,,,,,,,,,,,,,,,,,,,,870145,001,2024-03-21_18h53.55.186,Test1,2023.2.3,None,2024-03-21 18h54.02.735182 -0300,
1,0,1,0,7,0,7,0,3,0,3,0,,,,,,,,,,,,,,,,,,,,,,,,,36.13164725000024,,,,,,,,,,,,,,,,,,,,,,,,,36.085867764000795,36.085891877000904,36.08589865700014,36.085912892000124,,,,,,,,,,,,,,,,,,,,,,,,,,,,,,,,,,,,,,,,,,,,,,870145,001,2024-03-21_18h53.55.186,Test1,2023.2.3,None,2024-03-21 18h54.02.735182 -0300,
1,0,1,0,7,0,7,0,4,0,4,0,,,,,,,,,,,,,,,,,,,,,,,,,36.13164725000024,,,,,,,,,,,,,,,,,,,,,,,,,36.086067362000904,36.086090969,36.086097968000104,36.08611208200091,,,,,,,,,,,,,,,,,,,,,,,,,,,,,,,,,,,,,,,,,,,,,,870145,001,2024-03-21_18h53.55.186,Test1,2023.2.3,None,2024-03-21 18h54.02.735182 -0300,
1,0,1,0,7,0,7,0,5,0,5,0,,,,,,,,,,,,,,,,,,,,,,,,,36.13164725000024,,,,,,,,,,,,,,,,,,,,,,,,,36.08627456500108,36.08629904400004,36.086306096000044,36.08632018900062,,,,,,,,,,,,,,,,,,,,,,,,,,,,,,,,,,,,,,,,,,,,,,870145,001,2024-03-21_18h53.55.186,Test1,2023.2.3,None,2024-03-21 18h54.02.735182 -0300,
1,0,1,0,7,0,7,0,6,0,6,0,,,,,,,,,,,,,,,,,,,,,,,,,36.13164725000024,,,,,,,,,,,,,,,,,,,,,,,,,36.08647389200087,36.08649780500127,36.086504830000194,36.08651903600003,,,,,,,,,,,,,,,,,,,,,,,,,,,,,,,,,,,,,,,,,,,,,,870145,001,2024-03-21_18h53.55.186,Test1,2023.2.3,None,2024-03-21 18h54.02.735182 -0300,
1,0,1,0,7,0,7,0,7,0,7,0,,,,,,,,,,,,,,,,,,,,,,,,,36.13164725000024,,,,,,,,,,,,,,,,,,,,,,,,,36.08667073400102,36.08669588000157,36.08670288900066,36.08671727000001,,,,,,,,,,,,,,,,,,,,,,,,,,,,,,,,,,,,,,,,,,,,,,870145,001,2024-03-21_18h53.55.186,Test1,2023.2.3,None,2024-03-21 18h54.02.735182 -0300,
1,0,1,0,7,0,7,0,8,0,8,0,,,,,,,,,,,,,,,,,,,,,,,,,36.13164725000024,,,,,,,,,,,,,,,,,,,,,,,,,36.086870439999984,36.08689439200134,36.08690130300056,36.08691547900162,,,,,,,,,,,,,,,,,,,,,,,,,,,,,,,,,,,,,,,,,,,,,,870145,001,2024-03-21_18h53.55.186,Test1,2023.2.3,None,2024-03-21 18h54.02.735182 -0300,
1,0,1,0,7,0,7,0,9,0,9,0,,,,,,,,,,,,,,,,,,,,,,,,,36.13164725000024,,,,,,,,,,,,,,,,,,,,,,,,,36.0870753220006,36.08709917200031,36.087106214001324,36.0871204970008,,,,,,,,,,,,,,,,,,,,,,,,,,,,,,,,,,,,,,,,,,,,,,870145,001,2024-03-21_18h53.55.186,Test1,2023.2.3,None,2024-03-21 18h54.02.735182 -0300,
1,0,1,0,7,0,7,0,,,,,,,,,,,,,,,,,,,,,,,,,,,,,,,,,,,,,,,,,,,,,,,,,,,,,,,,,,,,,,,,,,,,,,,,,,,,,,,,,,,,,,,,,,,,,,,,,,,,,,,870145,001,2024-03-21_18h53.55.186,Test1,2023.2.3,None,2024-03-21 18h54.02.735182 -0300,
1,0,1,0,8,0,8,0,0,0,0,0,,,,,,,,,,,,,,,,,,,,,,,,,36.13164725000024,,,,,,,,,,,,,,,,,,,,,,,,,36.08769817400025,36.087729214999854,36.087736749001124,36.08775187900028,,,,,,,,,,,,,,,,,,,,,,,,,,,,,,,,,,,,,,,,,,,,,,870145,001,2024-03-21_18h53.55.186,Test1,2023.2.3,None,2024-03-21 18h54.02.735182 -0300,
1,0,1,0,8,0,8,0,1,0,1,0,,,,,,,,,,,,,,,,,,,,,,,,,36.13164725000024,,,,,,,,,,,,,,,,,,,,,,,,,36.08791340800053,36.08793848700043,36.08794538300026,36.08795952699984,,,,,,,,,,,,,,,,,,,,,,,,,,,,,,,,,,,,,,,,,,,,,,870145,001,2024-03-21_18h53.55.186,Test1,2023.2.3,None,2024-03-21 18h54.02.735182 -0300,
1,0,1,0,8,0,8,0,2,0,2,0,,,,,,,,,,,,,,,,,,,,,,,,,36.13164725000024,,,,,,,,,,,,,,,,,,,,,,,,,36.08811598000102,36.088139389999924,36.08814622600039,36.08816044500054,,,,,,,,,,,,,,,,,,,,,,,,,,,,,,,,,,,,,,,,,,,,,,870145,001,2024-03-21_18h53.55.186,Test1,2023.2.3,None,2024-03-21 18h54.02.735182 -0300,
1,0,1,0,8,0,8,0,3,0,3,0,,,,,,,,,,,,,,,,,,,,,,,,,36.13164725000024,,,,,,,,,,,,,,,,,,,,,,,,,36.088322070001595,36.08834574899993,36.08835248100149,36.08837036600016,,,,,,,,,,,,,,,,,,,,,,,,,,,,,,,,,,,,,,,,,,,,,,870145,001,2024-03-21_18h53.55.186,Test1,2023.2.3,None,2024-03-21 18h54.02.735182 -0300,
1,0,1,0,8,0,8,0,4,0,4,0,,,,,,,,,,,,,,,,,,,,,,,,,36.13164725000024,,,,,,,,,,,,,,,,,,,,,,,,,36.088520118000815,36.08854335800061,36.08855003700046,36.088564133000546,,,,,,,,,,,,,,,,,,,,,,,,,,,,,,,,,,,,,,,,,,,,,,870145,001,2024-03-21_18h53.55.186,Test1,2023.2.3,None,2024-03-21 18h54.02.735182 -0300,
1,0,1,0,8,0,8,0,5,0,5,0,,,,,,,,,,,,,,,,,,,,,,,,,36.13164725000024,,,,,,,,,,,,,,,,,,,,,,,,,36.08872358000008,36.088747423000314,36.08875431600063,36.08876836900163,,,,,,,,,,,,,,,,,,,,,,,,,,,,,,,,,,,,,,,,,,,,,,870145,001,2024-03-21_18h53.55.186,Test1,2023.2.3,None,2024-03-21 18h54.02.735182 -0300,
1,0,1,0,8,0,8,0,6,0,6,0,,,,,,,,,,,,,,,,,,,,,,,,,36.13164725000024,,,,,,,,,,,,,,,,,,,,,,,,,36.088917148999826,36.088940581001225,36.08894718800002,36.08896095700038,,,,,,,,,,,,,,,,,,,,,,,,,,,,,,,,,,,,,,,,,,,,,,870145,001,2024-03-21_18h53.55.186,Test1,2023.2.3,None,2024-03-21 18h54.02.735182 -0300,
1,0,1,0,8,0,8,0,7,0,7,0,,,,,,,,,,,,,,,,,,,,,,,,,36.13164725000024,,,,,,,,,,,,,,,,,,,,,,,,,36.08910863700112,36.0891314090004,36.08913809200021,36.08915196900125,,,,,,,,,,,,,,,,,,,,,,,,,,,,,,,,,,,,,,,,,,,,,,870145,001,2024-03-21_18h53.55.186,Test1,2023.2.3,None,2024-03-21 18h54.02.735182 -0300,
1,0,1,0,8,0,8,0,8,0,8,0,,,,,,,,,,,,,,,,,,,,,,,,,36.13164725000024,,,,,,,,,,,,,,,,,,,,,,,,,36.0893148060004,36.08933837100085,36.08934508099992,36.089359093000894,,,,,,,,,,,,,,,,,,,,,,,,,,,,,,,,,,,,,,,,,,,,,,870145,001,2024-03-21_18h53.55.186,Test1,2023.2.3,None,2024-03-21 18h54.02.735182 -0300,
1,0,1,0,8,0,8,0,9,0,9,0,,,,,,,,,,,,,,,,,,,,,,,,,36.13164725000024,,,,,,,,,,,,,,,,,,,,,,,,,36.08951283500028,36.089537301000746,36.08954411600098,36.08955850200073,,,,,,,,,,,,,,,,,,,,,,,,,,,,,,,,,,,,,,,,,,,,,,870145,001,2024-03-21_18h53.55.186,Test1,2023.2.3,None,2024-03-21 18h54.02.735182 -0300,
1,0,1,0,8,0,8,0,,,,,,,,,,,,,,,,,,,,,,,,,,,,,,,,,,,,,,,,,,,,,,,,,,,,,,,,,,,,,,,,,,,,,,,,,,,,,,,,,,,,,,,,,,,,,,,,,,,,,,,870145,001,2024-03-21_18h53.55.186,Test1,2023.2.3,None,2024-03-21 18h54.02.735182 -0300,
1,0,1,0,9,0,9,0,0,0,0,0,,,,,,,,,,,,,,,,,,,,,,,,,36.13164725000024,,,,,,,,,,,,,,,,,,,,,,,,,36.09010989200033,36.09014126800139,36.09014862600088,36.090163857001244,,,,,,,,,,,,,,,,,,,,,,,,,,,,,,,,,,,,,,,,,,,,,,870145,001,2024-03-21_18h53.55.186,Test1,2023.2.3,None,2024-03-21 18h54.02.735182 -0300,
1,0,1,0,9,0,9,0,1,0,1,0,,,,,,,,,,,,,,,,,,,,,,,,,36.13164725000024,,,,,,,,,,,,,,,,,,,,,,,,,36.0903188200009,36.090343081001265,36.090350058000695,36.090364295001564,,,,,,,,,,,,,,,,,,,,,,,,,,,,,,,,,,,,,,,,,,,,,,870145,001,2024-03-21_18h53.55.186,Test1,2023.2.3,None,2024-03-21 18h54.02.735182 -0300,
1,0,1,0,9,0,9,0,2,0,2,0,,,,,,,,,,,,,,,,,,,,,,,,,36.13164725000024,,,,,,,,,,,,,,,,,,,,,,,,,36.09052973700091,36.09055371500108,36.090560424001524,36.09057442199992,,,,,,,,,,,,,,,,,,,,,,,,,,,,,,,,,,,,,,,,,,,,,,870145,001,2024-03-21_18h53.55.186,Test1,2023.2.3,None,2024-03-21 18h54.02.735182 -0300,
1,0,1,0,9,0,9,0,3,0,3,0,,,,,,,,,,,,,,,,,,,,,,,,,36.13164725000024,,,,,,,,,,,,,,,,,,,,,,,,,36.09072565400129,36.090749438000785,36.09075932400083,36.09077372899992,,,,,,,,,,,,,,,,,,,,,,,,,,,,,,,,,,,,,,,,,,,,,,870145,001,2024-03-21_18h53.55.186,Test1,2023.2.3,None,2024-03-21 18h54.02.735182 -0300,
1,0,1,0,9,0,9,0,4,0,4,0,,,,,,,,,,,,,,,,,,,,,,,,,36.13164725000024,,,,,,,,,,,,,,,,,,,,,,,,,36.090932425000574,36.090955778001444,36.090962622000006,36.090976531000706,,,,,,,,,,,,,,,,,,,,,,,,,,,,,,,,,,,,,,,,,,,,,,870145,001,2024-03-21_18h53.55.186,Test1,2023.2.3,None,2024-03-21 18h54.02.735182 -0300,
1,0,1,0,9,0,9,0,5,0,5,0,,,,,,,,,,,,,,,,,,,,,,,,,36.13164725000024,,,,,,,,,,,,,,,,,,,,,,,,,36.09113267600151,36.091156139000304,36.09116294100022,36.09117714400054,,,,,,,,,,,,,,,,,,,,,,,,,,,,,,,,,,,,,,,,,,,,,,870145,001,2024-03-21_18h53.55.186,Test1,2023.2.3,None,2024-03-21 18h54.02.735182 -0300,
1,0,1,0,9,0,9,0,6,0,6,0,,,,,,,,,,,,,,,,,,,,,,,,,36.13164725000024,,,,,,,,,,,,,,,,,,,,,,,,,36.09132834900083,36.0913522890005,36.091359060001196,36.09137304500109,,,,,,,,,,,,,,,,,,,,,,,,,,,,,,,,,,,,,,,,,,,,,,870145,001,2024-03-21_18h53.55.186,Test1,2023.2.3,None,2024-03-21 18h54.02.735182 -0300,
1,0,1,0,9,0,9,0,7,0,7,0,,,,,,,,,,,,,,,,,,,,,,,,,36.13164725000024,,,,,,,,,,,,,,,,,,,,,,,,,36.091556678000416,36.09158520100027,36.09159345599983,36.09161267000127,,,,,,,,,,,,,,,,,,,,,,,,,,,,,,,,,,,,,,,,,,,,,,870145,001,2024-03-21_18h53.55.186,Test1,2023.2.3,None,2024-03-21 18h54.02.735182 -0300,
1,0,1,0,9,0,9,0,8,0,8,0,,,,,,,,,,,,,,,,,,,,,,,,,36.13164725000024,,,,,,,,,,,,,,,,,,,,,,,,,36.091768377000335,36.091791445000126,36.09179798700097,36.09181140600049,,,,,,,,,,,,,,,,,,,,,,,,,,,,,,,,,,,,,,,,,,,,,,870145,001,2024-03-21_18h53.55.186,Test1,2023.2.3,None,2024-03-21 18h54.02.735182 -0300,
1,0,1,0,9,0,9,0,9,0,9,0,,,,,,,,,,,,,,,,,,,,,,,,,36.13164725000024,,,,,,,,,,,,,,,,,,,,,,,,,36.091960186000506,36.09198280500095,36.091989393000404,36.09203950800111,,,,,,,,,,,,,,,,,,,,,,,,,,,,,,,,,,,,,,,,,,,,,,870145,001,2024-03-21_18h53.55.186,Test1,2023.2.3,None,2024-03-21 18h54.02.735182 -0300,
1,0,1,0,9,0,9,0,,,,,,,,,,,,,,,,,,,,,,,,,,,,,,,,,,,,,,,,,,,,,,,,,,,,,,,,,,,,,,,,,,,,,,,,,,,,,,,,,,,,,,,,,,,,,,,,,,,,,,,870145,001,2024-03-21_18h53.55.186,Test1,2023.2.3,None,2024-03-21 18h54.02.735182 -0300,
1,0,1,0,,,,,,,,,0,0,0,0,0,0,0,0,,,,,,,,,,,,,,,,,36.13164725000024,,,,,,,,,,,,,,,,,,,,,,,,,,,,,36.09274416900007,,,,,,,,,36.09278612400158,36.09279401100139,,36.09281818800082,,,,,,,,,,,,,,,,,,,,,,,,,,,,,,,,,870145,001,2024-03-21_18h53.55.186,Test1,2023.2.3,None,2024-03-21 18h54.02.735182 -0300,
